!@!!GADDS PLOTSO FILE: Chi integration type
!@!!Title/SampleName: LiMn2O4 Li1 to Li0 to Li0.8
!@!!Comment: ?. Li1 to Li0.6 map
!@!!User: Bruker Instrument Administrator
!@!!Site: University of Illinois Chicago
!@!!Frame: map-0_01_000.gfrm
!@!!Wavelengths    1.54184   1.54056   1.54439
!@!!Frame angles: 2Theta: 41.250 Omega: 30.000 Phi: 0.000 Chi: 90.000
!@!!Integration range: 2Theta: 32.500 to 52.500  Gamma: -105.000 to -75.000
!@!!Integration method: bin normalized
!@!N
!@!SS
!@!M
!@!L 0.0 0.0 0.0 0.0
!@!XDegrees
!@!YCounts
32.500 1.583208
32.505 0.987564
32.510 0.706231
32.515 1.190305
32.520 1.752848
32.525 1.925362
32.530 1.510374
32.535 0.87702
32.540 0.953879
32.545 0.616021
32.550 0.665493
32.555 0.692551
32.560 0.937606
32.565 1.256096
32.570 1.429997
32.575 1.565791
32.580 1.29566
32.585 1.109405
32.590 0.755009
32.595 0.783911
32.600 0.90651
32.605 1.151262
32.610 1.492328
32.615 1.742474
32.620 1.668754
32.625 1.45765
32.630 1.109068
32.635 0.735592
32.640 0.804259
32.645 0.673328
32.650 0.874463
32.655 0.903812
32.660 0.837008
32.665 1.149738
32.670 1.176782
32.675 1.269882
32.680 1.41846
32.685 1.295402
32.690 1.29042
32.695 0.752295
32.700 0.435541
32.705 0.441731
32.710 0.346125
32.715 0.46868
32.720 0.399359
32.725 0.848744
32.730 1.143665
32.735 1.474103
32.740 1.462165
32.745 1.246947
32.750 1.093634
32.755 0.829335
32.760 1.33798
32.765 1.574424
32.770 1.563046
32.775 1.231308
32.780 0.882793
32.785 1.221903
32.790 1.785356
32.795 2.271585
32.800 1.941928
32.805 2.10403
32.810 2.090696
32.815 2.358773
32.820 2.963953
32.825 2.550143
32.830 2.499202
32.835 2.152742
32.840 1.637594
32.845 1.425677
32.850 0.772446
32.855 1.097924
32.860 1.056099
32.865 1.756325
32.870 1.887962
32.875 1.606217
32.880 1.596346
32.885 1.30126
32.890 1.777162
32.895 1.825226
32.900 2.241485
32.905 2.073977
32.910 1.926619
32.915 1.724352
32.920 1.458273
32.925 2.030168
32.930 2.067015
32.935 1.789932
32.940 1.131882
32.945 0.611693
32.950 0.499778
32.955 0.688964
32.960 0.840969
32.965 1.090938
32.970 1.09474
32.975 1.52827
32.980 1.289559
32.985 1.480092
32.990 1.189984
32.995 1.292205
33.000 1.450915
33.005 1.453253
33.010 1.188787
33.015 0.97311
33.020 0.890084
33.025 0.776755
33.030 0.927192
33.035 1.158679
33.040 1.598374
33.045 2.18545
33.050 1.961322
33.055 2.006221
33.060 1.661953
33.065 1.39237
33.070 1.033577
33.075 0.925786
33.080 1.237896
33.085 1.803506
33.090 2.127706
33.095 2.06199
33.100 1.887386
33.105 1.780813
33.110 1.634138
33.115 1.723473
33.120 1.665218
33.125 1.639569
33.130 1.717629
33.135 1.348153
33.140 1.141488
33.145 0.853676
33.150 0.788431
33.155 0.657373
33.160 0.654172
33.165 0.440915
33.170 0.6752
33.175 0.908623
33.180 1.032733
33.185 1.044962
33.190 0.662673
33.195 0.414504
33.200 0.477445
33.205 0.643351
33.210 1.046078
33.215 1.651551
33.220 1.716538
33.225 1.791866
33.230 1.449608
33.235 1.227449
33.240 1.105633
33.245 0.789754
33.250 1.042733
33.255 1.366391
33.260 1.295494
33.265 1.073314
33.270 0.798877
33.275 1.111626
33.280 1.3985
33.285 1.349716
33.290 1.059264
33.295 0.576362
33.300 0.570313
33.305 1.117485
33.310 1.40246
33.315 1.863206
33.320 1.891179
33.325 1.964193
33.330 1.65805
33.335 1.00705
33.340 0.668766
33.345 0.563013
33.350 0.613191
33.355 0.694019
33.360 0.648063
33.365 0.820006
33.370 0.94902
33.375 1.048941
33.380 1.522027
33.385 1.419907
33.390 1.421823
33.395 1.266243
33.400 1.163307
33.405 0.954189
33.410 1.329776
33.415 1.049248
33.420 1.257561
33.425 0.977724
33.430 0.87766
33.435 0.97255
33.440 1.566976
33.445 1.548741
33.450 1.745829
33.455 1.256957
33.460 0.750524
33.465 0.71218
33.470 0.497546
33.475 0.601495
33.480 0.750591
33.485 0.753155
33.490 0.923695
33.495 1.032677
33.500 1.004902
33.505 1.522741
33.510 1.364081
33.515 1.73389
33.520 1.153142
33.525 1.369141
33.530 1.548655
33.535 1.565426
33.540 1.644389
33.545 1.261065
33.550 1.927826
33.555 2.098876
33.560 2.194084
33.565 1.548717
33.570 1.20323
33.575 1.140885
33.580 1.102559
33.585 1.015479
33.590 1.318544
33.595 1.16181
33.600 1.425114
33.605 1.462326
33.610 1.24113
33.615 0.991446
33.620 0.973734
33.625 1.049976
33.630 1.441569
33.635 1.278404
33.640 1.096904
33.645 0.885132
33.650 1.2431
33.655 1.641323
33.660 2.00987
33.665 2.05568
33.670 1.537557
33.675 1.518791
33.680 1.28683
33.685 1.313185
33.690 0.997794
33.695 0.626612
33.700 0.455457
33.705 0.533839
33.710 0.741776
33.715 1.329633
33.720 1.472798
33.725 1.629602
33.730 1.296163
33.735 1.027196
33.740 0.925382
33.745 0.850908
33.750 0.874788
33.755 0.986182
33.760 0.887066
33.765 0.786597
33.770 0.67806
33.775 0.749269
33.780 1.01914
33.785 1.223817
33.790 1.316324
33.795 1.498335
33.800 1.530606
33.805 1.457754
33.810 1.241186
33.815 1.120625
33.820 0.700876
33.825 0.662975
33.830 0.417017
33.835 0.501954
33.840 0.88545
33.845 1.079359
33.850 1.235808
33.855 1.208209
33.860 1.238112
33.865 1.466143
33.870 1.360054
33.875 1.446758
33.880 1.241832
33.885 1.45336
33.890 1.721503
33.895 1.581097
33.900 1.179522
33.905 0.9262
33.910 0.958539
33.915 1.265292
33.920 1.094952
33.925 0.945713
33.930 0.511343
33.935 0.69553
33.940 0.679216
33.945 0.752418
33.950 1.370033
33.955 1.101115
33.960 1.132156
33.965 1.095975
33.970 1.267632
33.975 1.255947
33.980 0.923915
33.985 0.245387
33.990 0.260499
33.995 0.591937
34.000 0.929307
34.005 1.031467
34.010 0.895627
34.015 0.521278
34.020 0.551298
34.025 0.673193
34.030 0.673115
34.035 0.666129
34.040 0.308068
34.045 0.831494
34.050 1.61146
34.055 2.033951
34.060 1.967355
34.065 1.249213
34.070 0.832353
34.075 0.618207
34.080 0.854898
34.085 1.256303
34.090 1.714624
34.095 1.992468
34.100 1.684033
34.105 1.492127
34.110 1.075948
34.115 1.200467
34.120 1.087527
34.125 1.267799
34.130 0.979058
34.135 1.30913
34.140 1.316543
34.145 1.370272
34.150 1.321444
34.155 1.243937
34.160 1.325934
34.165 1.204642
34.170 1.092343
34.175 1.015138
34.180 1.117565
34.185 1.037209
34.190 0.848929
34.195 1.020244
34.200 1.151873
34.205 1.289812
34.210 1.287339
34.215 1.465173
34.220 1.808024
34.225 1.792909
34.230 1.743288
34.235 1.470575
34.240 1.585306
34.245 1.433549
34.250 1.390767
34.255 1.627767
34.260 1.73627
34.265 1.864437
34.270 1.556557
34.275 1.005361
34.280 0.803879
34.285 0.379025
34.290 0.374529
34.295 0.457505
34.300 1.069912
34.305 1.243015
34.310 1.385015
34.315 1.201001
34.320 0.760823
34.325 0.748446
34.330 0.590526
34.335 0.484384
34.340 0.466704
34.345 0.602434
34.350 0.888615
34.355 1.094014
34.360 1.901985
34.365 2.116469
34.370 2.279552
34.375 1.779225
34.380 1.398463
34.385 1.482943
34.390 1.490004
34.395 1.215802
34.400 0.927277
34.405 0.444569
34.410 0.522583
34.415 0.405682
34.420 0.623753
34.425 0.760422
34.430 1.294901
34.435 1.486469
34.440 1.356405
34.445 1.047792
34.450 1.155571
34.455 1.34963
34.460 1.717824
34.465 1.362995
34.470 1.267234
34.475 1.2802
34.480 0.916667
34.485 1.156561
34.490 1.151658
34.495 1.629022
34.500 1.744725
34.505 1.270173
34.510 1.191974
34.515 0.935995
34.520 1.077981
34.525 1.288332
34.530 0.866698
34.535 0.949799
34.540 1.087591
34.545 1.319485
34.550 1.253221
34.555 0.960079
34.560 0.686063
34.565 0.554093
34.570 0.675171
34.575 0.739677
34.580 1.036755
34.585 1.314161
34.590 1.073552
34.595 1.117697
34.600 1.031815
34.605 1.362294
34.610 1.848757
34.615 1.670516
34.620 1.187125
34.625 0.91906
34.630 0.982034
34.635 1.250589
34.640 1.101315
34.645 0.862799
34.650 0.827572
34.655 1.128104
34.660 1.194746
34.665 1.178692
34.670 1.230475
34.675 1.353548
34.680 1.42206
34.685 1.175806
34.690 1.361741
34.695 1.238436
34.700 1.392869
34.705 1.222372
34.710 1.109025
34.715 1.160625
34.720 0.998131
34.725 0.973717
34.730 1.110885
34.735 1.202186
34.740 1.132404
34.745 1.432777
34.750 1.11015
34.755 1.339437
34.760 0.992855
34.765 1.051214
34.770 1.278047
34.775 1.326223
34.780 1.318376
34.785 1.117702
34.790 0.99667
34.795 0.870229
34.800 0.746987
34.805 1.042951
34.810 1.894056
34.815 2.567692
34.820 2.626964
34.825 1.838983
34.830 0.98613
34.835 0.766174
34.840 0.786678
34.845 1.227863
34.850 0.958908
34.855 1.377182
34.860 1.363212
34.865 1.763821
34.870 1.711285
34.875 1.303974
34.880 1.280729
34.885 1.070466
34.890 0.853232
34.895 1.202668
34.900 1.4579
34.905 1.634224
34.910 1.496131
34.915 0.756375
34.920 0.474069
34.925 0.694182
34.930 0.79903
34.935 1.060809
34.940 1.069102
34.945 1.065442
34.950 0.867717
34.955 0.758008
34.960 0.454297
34.965 0.472262
34.970 0.653488
34.975 0.864759
34.980 0.83771
34.985 0.937011
34.990 1.12581
34.995 1.41565
35.000 1.763802
35.005 1.467438
35.010 1.561654
35.015 1.243877
35.020 1.173895
35.025 1.278998
35.030 1.34208
35.035 1.67963
35.040 1.911521
35.045 2.263882
35.050 1.802397
35.055 1.853694
35.060 1.456186
35.065 1.348757
35.070 1.297774
35.075 1.497212
35.080 1.348442
35.085 1.426782
35.090 1.074177
35.095 0.900314
35.100 0.752641
35.105 1.007003
35.110 1.128362
35.115 1.367959
35.120 1.511088
35.125 1.266523
35.130 1.467761
35.135 1.172764
35.140 0.786098
35.145 0.557692
35.150 0.633877
35.155 1.039477
35.160 1.138767
35.165 1.224465
35.170 0.963193
35.175 0.950151
35.180 0.921981
35.185 0.868878
35.190 1.372491
35.195 1.599352
35.200 1.494851
35.205 1.318047
35.210 1.052625
35.215 0.939697
35.220 1.105627
35.225 0.762356
35.230 0.77882
35.235 0.771482
35.240 1.009402
35.245 1.399637
35.250 1.41416
35.255 1.344227
35.260 1.139942
35.265 1.561735
35.270 1.838333
35.275 1.961905
35.280 1.66626
35.285 1.223904
35.290 1.149442
35.295 1.580412
35.300 1.90682
35.305 1.764037
35.310 1.633485
35.315 1.363713
35.320 1.311087
35.325 1.347586
35.330 1.130688
35.335 0.970234
35.340 0.943711
35.345 0.907479
35.350 1.49369
35.355 1.871411
35.360 2.202118
35.365 1.941403
35.370 1.712101
35.375 1.368814
35.380 1.43607
35.385 1.334329
35.390 1.240822
35.395 1.195001
35.400 0.936833
35.405 1.194029
35.410 1.145944
35.415 1.095183
35.420 1.032557
35.425 0.88472
35.430 1.108332
35.435 1.342322
35.440 1.250995
35.445 1.108691
35.450 0.753532
35.455 1.014506
35.460 1.043025
35.465 1.014953
35.470 0.846534
35.475 0.861131
35.480 1.094277
35.485 1.211169
35.490 0.958804
35.495 0.69409
35.500 0.514253
35.505 0.631978
35.510 0.736569
35.515 1.250331
35.520 1.139075
35.525 1.308878
35.530 1.169935
35.535 1.239942
35.540 1.284331
35.545 1.621396
35.550 1.626541
35.555 1.664258
35.560 1.459884
35.565 1.548509
35.570 1.462205
35.575 1.468405
35.580 1.161974
35.585 1.315863
35.590 1.159826
35.595 1.083979
35.600 0.767188
35.605 0.468238
35.610 0.708103
35.615 1.065441
35.620 1.442268
35.625 1.290758
35.630 1.179507
35.635 1.215476
35.640 1.124423
35.645 1.1327
35.650 1.056552
35.655 0.913091
35.660 1.032975
35.665 0.926774
35.670 0.976669
35.675 1.195915
35.680 1.342613
35.685 1.338125
35.690 1.49583
35.695 1.138712
35.700 1.700482
35.705 1.647601
35.710 1.709294
35.715 1.552221
35.720 1.367849
35.725 1.000288
35.730 0.940038
35.735 1.062675
35.740 1.370823
35.745 1.500937
35.750 1.648982
35.755 1.891599
35.760 1.748374
35.765 1.542307
35.770 1.480787
35.775 1.820724
35.780 2.308598
35.785 2.293444
35.790 1.682392
35.795 1.746203
35.800 1.831682
35.805 1.55582
35.810 2.346453
35.815 2.078386
35.820 2.034888
35.825 1.650334
35.830 1.230153
35.835 1.557598
35.840 1.800818
35.845 1.70742
35.850 1.192133
35.855 1.142254
35.860 1.146654
35.865 1.405712
35.870 1.222646
35.875 1.090587
35.880 0.960965
35.885 1.266594
35.890 1.812996
35.895 1.787673
35.900 1.394003
35.905 0.675869
35.910 0.213581
35.915 0.60155
35.920 0.733057
35.925 0.936492
35.930 1.059148
35.935 1.314797
35.940 1.816215
35.945 1.845163
35.950 1.574734
35.955 1.219169
35.960 0.989426
35.965 0.805165
35.970 1.014088
35.975 0.837843
35.980 1.289449
35.985 1.196779
35.990 1.297876
35.995 1.110766
36.000 0.98498
36.005 0.788728
36.010 1.393659
36.015 2.03243
36.020 2.279703
36.025 2.352383
36.030 1.473286
36.035 1.338622
36.040 1.108019
36.045 1.138655
36.050 0.931267
36.055 1.121072
36.060 1.23547
36.065 1.494869
36.070 1.598308
36.075 1.227201
36.080 1.083315
36.085 1.223858
36.090 1.588359
36.095 1.857316
36.100 1.930495
36.105 1.647476
36.110 1.425698
36.115 1.5099
36.120 1.760045
36.125 1.674142
36.130 1.74367
36.135 1.520943
36.140 1.259733
36.145 1.150338
36.150 1.005742
36.155 0.926927
36.160 1.30041
36.165 1.021171
36.170 1.1541
36.175 0.881908
36.180 0.99703
36.185 1.185639
36.190 1.476109
36.195 1.895173
36.200 1.687773
36.205 1.448719
36.210 1.294039
36.215 1.27099
36.220 1.369589
36.225 1.396884
36.230 1.490091
36.235 1.594105
36.240 1.788161
36.245 1.801253
36.250 1.947188
36.255 2.370971
36.260 1.985334
36.265 2.236284
36.270 2.49353
36.275 2.202896
36.280 2.324306
36.285 2.033613
36.290 2.272654
36.295 2.340469
36.300 2.060675
36.305 1.606064
36.310 1.706506
36.315 2.121836
36.320 2.775247
36.325 3.233152
36.330 3.897009
36.335 3.710988
36.340 3.646244
36.345 3.103756
36.350 2.615518
36.355 2.587661
36.360 2.764958
36.365 2.726415
36.370 3.217602
36.375 3.546029
36.380 4.898896
36.385 5.976468
36.390 5.72782
36.395 5.971801
36.400 5.319886
36.405 5.150373
36.410 5.3355
36.415 5.698632
36.420 6.647347
36.425 7.554999
36.430 8.058702
36.435 7.679637
36.440 8.160354
36.445 7.860138
36.450 7.726482
36.455 7.547292
36.460 7.661756
36.465 8.804033
36.470 8.466532
36.475 9.275951
36.480 10.566816
36.485 12.37864
36.490 12.319174
36.495 12.045749
36.500 10.53622
36.505 8.91104
36.510 7.524059
36.515 5.607022
36.520 5.667749
36.525 6.037551
36.530 5.99371
36.535 5.492459
36.540 5.427334
36.545 6.176173
36.550 7.018809
36.555 7.460987
36.560 6.370426
36.565 5.470107
36.570 5.282722
36.575 5.548012
36.580 5.546576
36.585 5.48316
36.590 5.694483
36.595 5.882335
36.600 5.119821
36.605 4.634459
36.610 3.994364
36.615 3.767638
36.620 4.652616
36.625 4.360691
36.630 4.214193
36.635 3.411465
36.640 2.902548
36.645 3.224502
36.650 2.896257
36.655 2.457698
36.660 1.866159
36.665 1.577466
36.670 2.413308
36.675 2.854963
36.680 2.833028
36.685 2.598661
36.690 2.515714
36.695 2.532051
36.700 2.337759
36.705 1.846246
36.710 1.289778
36.715 1.276867
36.720 1.517431
36.725 1.482064
36.730 1.620821
36.735 1.569975
36.740 1.277821
36.745 1.543751
36.750 1.903666
36.755 2.188268
36.760 2.232142
36.765 1.756679
36.770 1.767056
36.775 1.314847
36.780 1.769131
36.785 1.78413
36.790 1.715479
36.795 1.728552
36.800 1.274382
36.805 1.262128
36.810 1.311313
36.815 1.593483
36.820 2.06232
36.825 2.228637
36.830 2.239837
36.835 2.191936
36.840 2.07907
36.845 1.81839
36.850 1.561597
36.855 1.022508
36.860 0.979255
36.865 1.133698
36.870 1.27021
36.875 1.578904
36.880 1.098924
36.885 1.124397
36.890 0.929922
36.895 1.573932
36.900 1.617938
36.905 1.831291
36.910 1.576603
36.915 1.849682
36.920 1.705761
36.925 1.539993
36.930 1.707492
36.935 1.369201
36.940 1.302427
36.945 0.962144
36.950 0.781454
36.955 0.774896
36.960 1.126796
36.965 1.042088
36.970 1.23541
36.975 1.568713
36.980 1.839392
36.985 1.66794
36.990 1.3965
36.995 1.087734
37.000 1.045872
37.005 1.321577
37.010 2.065068
37.015 2.479973
37.020 2.699088
37.025 2.430113
37.030 2.0007
37.035 1.586598
37.040 1.34714
37.045 1.273877
37.050 1.348828
37.055 1.826331
37.060 1.875353
37.065 1.805685
37.070 1.868132
37.075 1.78035
37.080 1.761084
37.085 1.249477
37.090 1.560145
37.095 1.716973
37.100 1.941523
37.105 2.234071
37.110 1.980233
37.115 2.171743
37.120 1.713306
37.125 1.661698
37.130 1.056024
37.135 0.906255
37.140 1.062682
37.145 1.035358
37.150 1.4099
37.155 0.998109
37.160 1.096838
37.165 1.005831
37.170 0.882052
37.175 0.859128
37.180 0.845389
37.185 1.492039
37.190 1.727967
37.195 1.986645
37.200 1.644263
37.205 1.275681
37.210 1.277271
37.215 1.146074
37.220 1.2164
37.225 1.458768
37.230 1.167229
37.235 1.270351
37.240 1.656398
37.245 1.938557
37.250 2.153707
37.255 1.701025
37.260 1.388309
37.265 1.089212
37.270 1.474687
37.275 1.653473
37.280 2.255357
37.285 2.126593
37.290 1.777053
37.295 1.120496
37.300 1.163001
37.305 1.049851
37.310 0.917706
37.315 0.525411
37.320 0.736876
37.325 1.056355
37.330 1.10298
37.335 1.825517
37.340 1.679122
37.345 1.870324
37.350 1.981919
37.355 1.931878
37.360 2.287605
37.365 2.20375
37.370 2.079229
37.375 1.903091
37.380 1.952836
37.385 1.841768
37.390 1.975204
37.395 1.770867
37.400 1.785369
37.405 1.674611
37.410 1.565654
37.415 1.799989
37.420 1.645209
37.425 1.848562
37.430 1.51827
37.435 1.918302
37.440 1.997846
37.445 1.717381
37.450 1.327141
37.455 0.761669
37.460 1.022447
37.465 1.294057
37.470 1.354814
37.475 1.582678
37.480 1.57901
37.485 1.385302
37.490 1.030529
37.495 0.724619
37.500 0.72879
37.505 0.700966
37.510 0.695831
37.515 1.001272
37.520 1.519117
37.525 1.571105
37.530 1.345292
37.535 1.212373
37.540 1.250881
37.545 1.370358
37.550 1.25515
37.555 1.391173
37.560 1.607483
37.565 1.856161
37.570 1.652431
37.575 1.256428
37.580 1.294499
37.585 1.234686
37.590 1.347877
37.595 1.026433
37.600 1.11097
37.605 1.146334
37.610 1.089074
37.615 0.926801
37.620 1.059343
37.625 1.084075
37.630 1.670652
37.635 1.686456
37.640 1.336806
37.645 0.95117
37.650 0.642297
37.655 0.934177
37.660 1.145996
37.665 1.001307
37.670 1.324968
37.675 1.203145
37.680 1.246614
37.685 0.966594
37.690 0.604293
37.695 0.896641
37.700 1.380031
37.705 1.530638
37.710 1.563426
37.715 1.344502
37.720 1.343058
37.725 1.79223
37.730 1.864856
37.735 2.098665
37.740 2.129885
37.745 1.506856
37.750 1.173942
37.755 0.812833
37.760 0.78991
37.765 1.040252
37.770 1.253824
37.775 1.548903
37.780 1.379362
37.785 1.323299
37.790 0.890066
37.795 1.202568
37.800 1.679779
37.805 1.490441
37.810 1.458683
37.815 0.848347
37.820 0.635136
37.825 0.869406
37.830 0.836992
37.835 1.096815
37.840 1.476997
37.845 1.392031
37.850 1.216147
37.855 0.987268
37.860 1.021808
37.865 1.1441
37.870 1.276814
37.875 1.258932
37.880 1.462147
37.885 1.568794
37.890 1.571825
37.895 2.027
37.900 1.841349
37.905 2.093502
37.910 1.757119
37.915 1.498539
37.920 1.400493
37.925 1.371765
37.930 1.469861
37.935 1.057105
37.940 0.820877
37.945 1.191441
37.950 1.368681
37.955 1.80809
37.960 1.823626
37.965 1.513025
37.970 1.397274
37.975 1.147013
37.980 1.40867
37.985 1.314024
37.990 1.618803
37.995 1.529283
38.000 2.385123
38.005 2.164178
38.010 2.166152
38.015 1.452478
38.020 0.904528
38.025 0.924043
38.030 1.072927
38.035 1.405079
38.040 1.556215
38.045 1.662674
38.050 1.707978
38.055 1.856961
38.060 1.578051
38.065 1.426126
38.070 1.836329
38.075 2.263647
38.080 2.577238
38.085 2.676367
38.090 2.530282
38.095 2.421261
38.100 2.098565
38.105 1.912103
38.110 2.248208
38.115 2.437328
38.120 2.6558
38.125 2.271853
38.130 2.647667
38.135 2.616594
38.140 2.315655
38.145 2.380885
38.150 2.168554
38.155 2.53784
38.160 2.78668
38.165 3.05556
38.170 3.091764
38.175 3.041131
38.180 3.281805
38.185 2.857059
38.190 2.671815
38.195 2.537834
38.200 2.497391
38.205 3.110521
38.210 3.769668
38.215 3.540372
38.220 3.366375
38.225 2.996412
38.230 2.892055
38.235 2.855338
38.240 2.349343
38.245 1.896232
38.250 1.801557
38.255 1.782839
38.260 1.584776
38.265 1.778998
38.270 2.075497
38.275 2.338387
38.280 2.3097
38.285 2.172123
38.290 2.111814
38.295 1.986905
38.300 1.863849
38.305 1.638536
38.310 1.341688
38.315 1.432819
38.320 1.399351
38.325 1.73375
38.330 1.687181
38.335 1.684452
38.340 1.321622
38.345 1.412416
38.350 1.881309
38.355 1.773402
38.360 1.58316
38.365 1.327912
38.370 1.355917
38.375 1.638609
38.380 2.149046
38.385 2.000303
38.390 2.479297
38.395 2.48401
38.400 3.118333
38.405 2.642185
38.410 2.059957
38.415 1.076618
38.420 0.798795
38.425 1.141955
38.430 1.001364
38.435 1.242299
38.440 1.077889
38.445 1.608346
38.450 2.149168
38.455 2.843463
38.460 2.77037
38.465 2.827952
38.470 2.029574
38.475 1.864252
38.480 1.69249
38.485 1.742469
38.490 1.997749
38.495 1.853848
38.500 1.407692
38.505 1.204535
38.510 1.266108
38.515 1.339242
38.520 1.668774
38.525 1.073338
38.530 0.888023
38.535 0.589661
38.540 0.735558
38.545 0.730024
38.550 0.742644
38.555 1.125319
38.560 1.338467
38.565 1.717312
38.570 1.66869
38.575 1.80647
38.580 1.653205
38.585 1.844494
38.590 1.692451
38.595 1.909037
38.600 1.643316
38.605 1.386087
38.610 0.898584
38.615 0.730027
38.620 1.084425
38.625 1.456875
38.630 1.771489
38.635 1.663432
38.640 1.248818
38.645 0.874972
38.650 0.712852
38.655 0.826914
38.660 0.899565
38.665 1.175652
38.670 1.293679
38.675 1.346832
38.680 1.229499
38.685 0.970661
38.690 0.962092
38.695 0.934153
38.700 0.971365
38.705 1.088331
38.710 1.062897
38.715 1.070323
38.720 1.325967
38.725 1.371405
38.730 2.035665
38.735 2.837903
38.740 2.844276
38.745 3.040285
38.750 2.459492
38.755 2.599072
38.760 2.280118
38.765 2.179082
38.770 2.178967
38.775 1.817407
38.780 1.919942
38.785 1.212041
38.790 1.297303
38.795 1.232258
38.800 1.262194
38.805 1.059441
38.810 0.830355
38.815 0.840634
38.820 0.739678
38.825 0.900041
38.830 0.895903
38.835 1.715308
38.840 2.214301
38.845 2.143493
38.850 1.931282
38.855 1.383025
38.860 1.555188
38.865 1.821175
38.870 2.048388
38.875 1.572545
38.880 1.311957
38.885 1.130136
38.890 1.157452
38.895 1.258154
38.900 1.143307
38.905 1.296984
38.910 1.256216
38.915 1.128586
38.920 1.360729
38.925 1.31488
38.930 1.246583
38.935 0.931141
38.940 0.794013
38.945 0.969511
38.950 0.646195
38.955 0.80213
38.960 0.789286
38.965 0.916867
38.970 1.063313
38.975 1.184197
38.980 1.070132
38.985 1.290486
38.990 1.564871
38.995 1.681708
39.000 1.371444
39.005 1.317083
39.010 1.489022
39.015 2.223813
39.020 2.209088
39.025 1.585878
39.030 0.816565
39.035 0.686101
39.040 1.312706
39.045 1.685853
39.050 2.121397
39.055 1.775329
39.060 1.713992
39.065 1.31019
39.070 1.368086
39.075 1.174439
39.080 1.176092
39.085 0.848325
39.090 0.442688
39.095 0.659698
39.100 1.190112
39.105 1.74032
39.110 1.965575
39.115 2.127121
39.120 2.171046
39.125 2.217773
39.130 2.204015
39.135 1.609742
39.140 1.356076
39.145 1.112406
39.150 1.41331
39.155 1.529866
39.160 1.329292
39.165 1.331774
39.170 1.394243
39.175 1.483391
39.180 1.2846
39.185 0.990347
39.190 0.656848
39.195 0.648009
39.200 0.737459
39.205 0.846476
39.210 1.141287
39.215 1.209253
39.220 1.104802
39.225 1.149468
39.230 1.107494
39.235 1.276948
39.240 1.468704
39.245 1.406912
39.250 1.514739
39.255 1.706906
39.260 1.527132
39.265 1.521931
39.270 1.279514
39.275 1.963296
39.280 2.055598
39.285 1.886978
39.290 1.462449
39.295 1.061041
39.300 1.519377
39.305 1.792752
39.310 2.004248
39.315 1.797464
39.320 1.655515
39.325 1.16561
39.330 0.937542
39.335 0.794885
39.340 1.249298
39.345 1.719973
39.350 1.645592
39.355 1.207844
39.360 1.059282
39.365 1.120077
39.370 1.316694
39.375 1.487408
39.380 1.983157
39.385 1.966851
39.390 2.072665
39.395 1.651105
39.400 1.398624
39.405 1.111032
39.410 1.155649
39.415 1.339301
39.420 1.401731
39.425 1.483011
39.430 1.22988
39.435 1.39083
39.440 1.496382
39.445 1.30022
39.450 1.526641
39.455 1.373461
39.460 1.681551
39.465 1.909873
39.470 1.59292
39.475 1.330765
39.480 0.899973
39.485 1.067418
39.490 1.218542
39.495 1.666949
39.500 1.622681
39.505 1.428632
39.510 1.203445
39.515 1.053691
39.520 0.748047
39.525 1.376446
39.530 1.449892
39.535 1.750374
39.540 1.53579
39.545 1.035765
39.550 1.250731
39.555 1.198136
39.560 1.332173
39.565 1.193553
39.570 1.156636
39.575 1.185006
39.580 1.33177
39.585 1.466236
39.590 1.278097
39.595 1.131358
39.600 1.07277
39.605 0.86881
39.610 1.159514
39.615 1.08886
39.620 1.233419
39.625 1.362773
39.630 1.514697
39.635 1.614423
39.640 1.427195
39.645 1.288178
39.650 1.125728
39.655 1.256636
39.660 1.483208
39.665 1.734179
39.670 1.852811
39.675 2.148222
39.680 2.024024
39.685 1.707696
39.690 1.267334
39.695 0.955332
39.700 1.177285
39.705 1.165969
39.710 0.964343
39.715 1.374915
39.720 1.546005
39.725 2.208437
39.730 2.089205
39.735 1.753655
39.740 1.236074
39.745 1.414522
39.750 1.738986
39.755 1.990557
39.760 2.03826
39.765 1.824842
39.770 1.70079
39.775 1.397396
39.780 0.989939
39.785 1.210778
39.790 1.232441
39.795 1.74332
39.800 1.583894
39.805 1.385393
39.810 1.593443
39.815 1.658352
39.820 1.536651
39.825 1.393859
39.830 1.021825
39.835 1.28481
39.840 1.833388
39.845 1.791725
39.850 1.505993
39.855 1.620068
39.860 1.638957
39.865 1.879785
39.870 2.013043
39.875 2.078431
39.880 2.276009
39.885 1.652248
39.890 1.241326
39.895 0.953929
39.900 1.788193
39.905 2.215447
39.910 1.814535
39.915 1.465595
39.920 0.709968
39.925 0.655338
39.930 1.111092
39.935 1.561308
39.940 1.64362
39.945 1.398988
39.950 1.419352
39.955 1.305346
39.960 1.697155
39.965 1.608886
39.970 1.834002
39.975 2.121849
39.980 2.060777
39.985 1.866132
39.990 1.76321
39.995 1.657923
40.000 1.621951
40.005 1.143401
40.010 1.067049
40.015 0.924764
40.020 0.85614
40.025 1.177982
40.030 1.193811
40.035 1.358954
40.040 1.312163
40.045 1.347129
40.050 1.145868
40.055 1.398558
40.060 1.620659
40.065 1.835577
40.070 2.21989
40.075 1.726416
40.080 1.596913
40.085 1.138989
40.090 1.139561
40.095 1.492049
40.100 1.35835
40.105 1.570727
40.110 1.354366
40.115 1.436586
40.120 1.400777
40.125 1.095665
40.130 0.985231
40.135 0.783533
40.140 1.159973
40.145 1.481165
40.150 2.004236
40.155 1.968276
40.160 1.705844
40.165 1.477646
40.170 1.136801
40.175 1.24763
40.180 1.487378
40.185 1.432564
40.190 2.09195
40.195 2.077106
40.200 2.047262
40.205 1.954759
40.210 1.642127
40.215 1.926479
40.220 1.922547
40.225 1.918593
40.230 1.819026
40.235 1.564338
40.240 1.228674
40.245 1.142446
40.250 1.219692
40.255 1.458528
40.260 1.913702
40.265 1.744568
40.270 1.57142
40.275 1.473844
40.280 1.247026
40.285 1.437607
40.290 1.135816
40.295 1.043691
40.300 0.94398
40.305 1.057871
40.310 1.516897
40.315 2.496457
40.320 2.634605
40.325 2.256158
40.330 1.580001
40.335 0.918821
40.340 1.06476
40.345 1.206232
40.350 1.093249
40.355 1.284202
40.360 1.131556
40.365 1.075022
40.370 1.546532
40.375 1.654849
40.380 1.679704
40.385 1.579723
40.390 0.946449
40.395 0.893951
40.400 0.721986
40.405 0.763422
40.410 0.834179
40.415 1.146391
40.420 1.095495
40.425 0.710061
40.430 0.564053
40.435 0.453183
40.440 1.011873
40.445 1.901973
40.450 2.086558
40.455 2.087595
40.460 1.146178
40.465 0.695034
40.470 0.59541
40.475 0.746551
40.480 0.736333
40.485 0.737767
40.490 0.730148
40.495 1.503104
40.500 1.68846
40.505 1.565074
40.510 1.205336
40.515 0.952528
40.520 1.253892
40.525 1.562082
40.530 1.384098
40.535 1.236954
40.540 1.325587
40.545 1.091258
40.550 1.158605
40.555 0.930213
40.560 1.006663
40.565 0.806593
40.570 0.540437
40.575 0.525728
40.580 0.663311
40.585 0.986131
40.590 1.358184
40.595 1.154619
40.600 1.076657
40.605 0.774956
40.610 1.170204
40.615 1.144649
40.620 1.226995
40.625 1.438913
40.630 1.56962
40.635 1.796727
40.640 1.596321
40.645 1.129975
40.650 1.088891
40.655 0.93058
40.660 1.176343
40.665 1.248371
40.670 1.382608
40.675 1.500705
40.680 1.484093
40.685 1.501308
40.690 1.441355
40.695 1.477592
40.700 1.838144
40.705 2.184836
40.710 1.916511
40.715 1.952869
40.720 1.208427
40.725 1.219385
40.730 1.287164
40.735 1.262944
40.740 1.750508
40.745 1.79979
40.750 1.756271
40.755 1.433658
40.760 1.71328
40.765 2.005019
40.770 2.355189
40.775 1.992215
40.780 1.420956
40.785 1.461987
40.790 1.425193
40.795 1.82088
40.800 1.558376
40.805 1.534779
40.810 1.237963
40.815 1.18426
40.820 1.443823
40.825 1.565779
40.830 1.923301
40.835 1.89952
40.840 1.72761
40.845 1.625487
40.850 1.372744
40.855 1.561877
40.860 1.839475
40.865 2.036602
40.870 1.803461
40.875 1.308299
40.880 1.015267
40.885 1.171878
40.890 1.682701
40.895 2.037588
40.900 2.027757
40.905 1.699473
40.910 1.418611
40.915 1.458075
40.920 1.642033
40.925 1.783234
40.930 1.639421
40.935 1.292531
40.940 1.250248
40.945 1.275674
40.950 1.642505
40.955 2.070863
40.960 2.098715
40.965 2.068829
40.970 1.654167
40.975 0.993441
40.980 1.109349
40.985 1.185976
40.990 1.565515
40.995 1.760692
41.000 1.444675
41.005 1.543369
41.010 1.661952
41.015 1.904904
41.020 1.778689
41.025 1.394347
41.030 1.009497
41.035 0.814713
41.040 1.181163
41.045 1.407165
41.050 1.21523
41.055 1.323966
41.060 1.328279
41.065 1.370907
41.070 1.060293
41.075 0.854949
41.080 0.824988
41.085 1.355126
41.090 1.492042
41.095 1.582051
41.100 1.551783
41.105 1.447634
41.110 1.639012
41.115 1.927441
41.120 2.552677
41.125 2.543391
41.130 2.303749
41.135 1.734745
41.140 1.330775
41.145 1.745981
41.150 1.588358
41.155 1.588969
41.160 1.3487
41.165 1.274356
41.170 1.102964
41.175 1.216814
41.180 1.382442
41.185 1.398928
41.190 1.784875
41.195 1.731242
41.200 1.607988
41.205 1.223731
41.210 0.85637
41.215 0.803184
41.220 1.280255
41.225 1.240983
41.230 1.46604
41.235 1.136272
41.240 1.13946
41.245 1.219778
41.250 1.658723
41.255 1.988048
41.260 1.971494
41.265 1.881018
41.270 1.506016
41.275 1.235426
41.280 0.966771
41.285 0.986372
41.290 1.011496
41.295 0.897294
41.300 0.94641
41.305 0.946592
41.310 0.960519
41.315 1.730272
41.320 1.802883
41.325 2.18593
41.330 2.069152
41.335 1.895775
41.340 1.686715
41.345 1.547523
41.350 1.373337
41.355 1.607571
41.360 1.729887
41.365 1.378191
41.370 1.419618
41.375 1.051224
41.380 1.237055
41.385 1.645028
41.390 1.563644
41.395 1.275208
41.400 1.306489
41.405 1.14781
41.410 1.373829
41.415 1.44543
41.420 1.502125
41.425 1.786905
41.430 1.921941
41.435 1.625301
41.440 1.27723
41.445 1.020449
41.450 1.117669
41.455 1.51832
41.460 1.224727
41.465 0.75253
41.470 0.174467
41.475 0.248446
41.480 0.464842
41.485 0.814257
41.490 1.577777
41.495 2.107881
41.500 2.604758
41.505 2.201034
41.510 1.539595
41.515 1.113119
41.520 0.988039
41.525 1.12143
41.530 1.255473
41.535 1.230683
41.540 1.256792
41.545 1.074496
41.550 1.026781
41.555 0.793064
41.560 0.92546
41.565 0.844081
41.570 1.051942
41.575 1.337155
41.580 1.386039
41.585 1.457747
41.590 1.485206
41.595 1.810649
41.600 2.216465
41.605 2.165472
41.610 1.761567
41.615 1.187533
41.620 0.891498
41.625 0.970045
41.630 1.499096
41.635 1.552464
41.640 1.465346
41.645 1.427494
41.650 1.036686
41.655 1.567831
41.660 1.76565
41.665 1.829321
41.670 1.187305
41.675 0.565107
41.680 0.647639
41.685 0.748572
41.690 1.299238
41.695 1.47813
41.700 1.56397
41.705 1.622381
41.710 1.712846
41.715 1.754444
41.720 2.134941
41.725 2.054146
41.730 1.744488
41.735 1.450838
41.740 1.062427
41.745 1.197208
41.750 0.964688
41.755 1.046114
41.760 0.928543
41.765 1.234911
41.770 1.455636
41.775 1.438115
41.780 1.223779
41.785 1.15414
41.790 0.899928
41.795 1.088949
41.800 0.800176
41.805 0.970477
41.810 1.348741
41.815 1.615423
41.820 2.052359
41.825 2.593842
41.830 2.717427
41.835 2.86397
41.840 2.461916
41.845 2.139332
41.850 2.430301
41.855 2.439123
41.860 2.170055
41.865 1.711767
41.870 1.668505
41.875 1.993463
41.880 1.975509
41.885 1.543781
41.890 0.974171
41.895 1.173891
41.900 1.360611
41.905 1.337262
41.910 1.112881
41.915 1.251744
41.920 1.234929
41.925 1.691778
41.930 1.4411
41.935 1.62597
41.940 1.45171
41.945 1.631574
41.950 1.564953
41.955 1.788407
41.960 1.573245
41.965 1.369986
41.970 0.863335
41.975 0.901637
41.980 0.922892
41.985 1.08715
41.990 1.245913
41.995 1.358222
42.000 1.35657
42.005 1.746259
42.010 1.511539
42.015 1.220428
42.020 1.45633
42.025 1.42435
42.030 1.71043
42.035 1.399718
42.040 1.199077
42.045 1.14678
42.050 1.006003
42.055 0.923374
42.060 0.686412
42.065 0.594611
42.070 0.684048
42.075 1.075463
42.080 1.718409
42.085 1.582102
42.090 1.535185
42.095 1.149324
42.100 1.191917
42.105 1.406913
42.110 1.31019
42.115 1.600008
42.120 1.745539
42.125 1.44838
42.130 1.599826
42.135 1.222316
42.140 1.589418
42.145 1.568872
42.150 1.498851
42.155 1.351932
42.160 1.394334
42.165 1.161848
42.170 1.124225
42.175 1.086716
42.180 1.649762
42.185 2.197844
42.190 1.98055
42.195 1.529362
42.200 0.843627
42.205 0.953588
42.210 0.900566
42.215 0.819031
42.220 0.837664
42.225 1.030697
42.230 1.471512
42.235 1.501314
42.240 1.476357
42.245 1.079039
42.250 0.695475
42.255 0.709466
42.260 0.929107
42.265 1.300745
42.270 1.724059
42.275 1.771235
42.280 1.915714
42.285 1.673402
42.290 1.635314
42.295 1.446626
42.300 1.53229
42.305 1.359394
42.310 1.529227
42.315 1.389161
42.320 1.252176
42.325 1.297624
42.330 1.59629
42.335 1.910937
42.340 1.790723
42.345 1.20726
42.350 0.757667
42.355 1.155035
42.360 1.21888
42.365 1.674209
42.370 1.394627
42.375 1.133751
42.380 1.217091
42.385 1.075261
42.390 1.127443
42.395 1.362842
42.400 1.399192
42.405 1.382017
42.410 1.140913
42.415 0.941756
42.420 1.085787
42.425 1.019289
42.430 1.044597
42.435 0.734466
42.440 0.724421
42.445 0.92214
42.450 1.163605
42.455 1.180452
42.460 1.253424
42.465 1.295614
42.470 1.370707
42.475 1.619757
42.480 1.818078
42.485 2.343186
42.490 2.124118
42.495 2.070817
42.500 1.272881
42.505 0.822896
42.510 0.904558
42.515 1.122953
42.520 1.382677
42.525 1.925099
42.530 1.998248
42.535 2.084333
42.540 2.045349
42.545 1.855489
42.550 1.703802
42.555 1.454116
42.560 1.364542
42.565 1.149043
42.570 1.123442
42.575 1.30058
42.580 1.558769
42.585 2.156327
42.590 2.098299
42.595 1.588477
42.600 0.969097
42.605 0.673077
42.610 1.058572
42.615 1.070921
42.620 1.04686
42.625 0.737022
42.630 1.090326
42.635 1.373365
42.640 1.710316
42.645 1.601788
42.650 1.483945
42.655 1.382135
42.660 1.070511
42.665 0.891597
42.670 0.726243
42.675 0.930143
42.680 1.378895
42.685 1.791696
42.690 1.725211
42.695 1.516482
42.700 1.020096
42.705 1.042829
42.710 1.126578
42.715 1.508785
42.720 1.713069
42.725 1.56792
42.730 1.22782
42.735 0.927148
42.740 0.83341
42.745 0.970743
42.750 0.945787
42.755 1.030991
42.760 1.103743
42.765 1.280322
42.770 1.496963
42.775 1.538405
42.780 1.737217
42.785 1.242448
42.790 1.166284
42.795 1.403364
42.800 1.179175
42.805 1.368992
42.810 1.025127
42.815 0.884733
42.820 1.055124
42.825 1.155225
42.830 1.148455
42.835 1.169741
42.840 1.470904
42.845 1.7066
42.850 1.970772
42.855 1.425667
42.860 1.427857
42.865 1.336242
42.870 1.397677
42.875 1.194393
42.880 0.793151
42.885 0.632815
42.890 0.990745
42.895 1.250195
42.900 1.442254
42.905 1.206053
42.910 1.058117
42.915 0.848901
42.920 0.931561
42.925 0.980301
42.930 0.947532
42.935 1.349125
42.940 1.34006
42.945 1.941753
42.950 1.672293
42.955 1.956851
42.960 1.713566
42.965 1.67575
42.970 1.550055
42.975 1.505594
42.980 1.526155
42.985 1.458702
42.990 1.078838
42.995 0.855715
43.000 0.732628
43.005 0.83048
43.010 1.290436
43.015 1.293123
43.020 1.816766
43.025 2.058314
43.030 2.185007
43.035 2.040489
43.040 1.392209
43.045 1.24961
43.050 1.327734
43.055 1.458067
43.060 1.419969
43.065 1.015507
43.070 0.518069
43.075 0.567442
43.080 0.779235
43.085 1.018047
43.090 1.232301
43.095 1.17472
43.100 1.313775
43.105 1.401628
43.110 1.506423
43.115 1.544993
43.120 1.478808
43.125 1.201478
43.130 0.985048
43.135 0.910621
43.140 0.706844
43.145 0.61676
43.150 0.421889
43.155 0.450268
43.160 0.751039
43.165 1.249695
43.170 1.567106
43.175 1.71443
43.180 2.2265
43.185 2.540956
43.190 2.617716
43.195 2.341367
43.200 1.706244
43.205 1.600011
43.210 1.967145
43.215 2.025586
43.220 1.994842
43.225 1.394552
43.230 1.292641
43.235 1.092165
43.240 1.491623
43.245 1.722751
43.250 1.660056
43.255 1.72173
43.260 1.334573
43.265 1.655096
43.270 1.502949
43.275 1.42108
43.280 1.308387
43.285 1.222105
43.290 1.245922
43.295 1.248444
43.300 1.114391
43.305 0.910241
43.310 0.823132
43.315 0.764808
43.320 0.785355
43.325 1.124041
43.330 1.093394
43.335 0.943255
43.340 1.357472
43.345 1.48387
43.350 1.679447
43.355 1.902883
43.360 1.762967
43.365 1.696716
43.370 1.603443
43.375 1.09164
43.380 1.241015
43.385 1.031179
43.390 1.311609
43.395 1.267479
43.400 1.261518
43.405 1.471596
43.410 1.123094
43.415 1.041323
43.420 1.439733
43.425 1.758535
43.430 1.958209
43.435 1.645585
43.440 1.122916
43.445 1.141982
43.450 1.148715
43.455 1.049238
43.460 1.218508
43.465 1.450174
43.470 1.325392
43.475 0.962969
43.480 0.498158
43.485 0.446709
43.490 0.961013
43.495 1.659655
43.500 1.777068
43.505 1.973712
43.510 1.798294
43.515 1.621481
43.520 1.731125
43.525 1.868264
43.530 1.596063
43.535 1.675591
43.540 1.231974
43.545 1.223102
43.550 1.947868
43.555 1.815609
43.560 1.933957
43.565 1.412992
43.570 1.170236
43.575 1.679541
43.580 1.826523
43.585 1.760492
43.590 1.235162
43.595 0.446153
43.600 0.927655
43.605 1.220221
43.610 1.576
43.615 1.90431
43.620 1.638211
43.625 1.467054
43.630 1.636442
43.635 1.851484
43.640 2.153726
43.645 1.904795
43.650 1.805629
43.655 1.885462
43.660 2.609261
43.665 2.455684
43.670 1.927317
43.675 1.265127
43.680 1.127286
43.685 1.571216
43.690 1.804477
43.695 1.461545
43.700 1.330839
43.705 1.23046
43.710 1.412775
43.715 1.485362
43.720 1.175312
43.725 1.322933
43.730 1.098478
43.735 1.231156
43.740 1.232052
43.745 1.336523
43.750 1.712584
43.755 1.613526
43.760 1.822393
43.765 1.696016
43.770 1.765629
43.775 1.685001
43.780 1.778656
43.785 1.725977
43.790 1.878309
43.795 1.996152
43.800 2.025775
43.805 1.53722
43.810 1.349783
43.815 1.095271
43.820 1.650264
43.825 2.55922
43.830 2.837514
43.835 2.695855
43.840 2.035191
43.845 1.912586
43.850 1.940902
43.855 2.318751
43.860 1.983022
43.865 1.505628
43.870 1.265543
43.875 1.038324
43.880 1.409558
43.885 1.426428
43.890 1.59577
43.895 1.557846
43.900 1.486506
43.905 1.922949
43.910 2.177058
43.915 2.072095
43.920 1.814758
43.925 1.316449
43.930 1.01306
43.935 1.079887
43.940 1.074452
43.945 1.023382
43.950 1.395288
43.955 1.639883
43.960 2.164752
43.965 2.944831
43.970 2.524263
43.975 2.087867
43.980 1.393274
43.985 1.392096
43.990 1.653841
43.995 1.523023
44.000 1.465698
44.005 1.266303
44.010 1.294572
44.015 0.998519
44.020 0.961512
44.025 1.097744
44.030 1.261839
44.035 1.221509
44.040 1.42704
44.045 1.921541
44.050 2.057299
44.055 2.095483
44.060 2.326706
44.065 2.644523
44.070 3.104262
44.075 2.822047
44.080 2.407718
44.085 1.991497
44.090 2.136166
44.095 2.203525
44.100 2.43089
44.105 2.304003
44.110 2.230155
44.115 1.982903
44.120 1.904961
44.125 2.08147
44.130 2.560256
44.135 2.798229
44.140 3.158273
44.145 2.995345
44.150 2.756359
44.155 2.542892
44.160 2.754618
44.165 3.39332
44.170 4.022698
44.175 4.858798
44.180 5.261484
44.185 5.466843
44.190 5.226555
44.195 4.582391
44.200 4.409701
44.205 4.987849
44.210 5.379822
44.215 6.131394
44.220 6.18472
44.225 5.82203
44.230 5.592085
44.235 5.667068
44.240 6.776876
44.245 7.439032
44.250 9.039578
44.255 10.302193
44.260 11.110879
44.265 12.487056
44.270 13.831417
44.275 15.287506
44.280 16.087231
44.285 15.282781
44.290 14.545823
44.295 13.46382
44.300 12.90995
44.305 12.956716
44.310 12.818886
44.315 14.41423
44.320 15.850548
44.325 16.370842
44.330 17.494781
44.335 16.328314
44.340 15.506044
44.345 15.329852
44.350 15.635732
44.355 17.195414
44.360 18.480021
44.365 18.920904
44.370 20.319815
44.375 20.243938
44.380 18.484726
44.385 17.276171
44.390 15.689454
44.395 15.594913
44.400 16.120245
44.405 16.112532
44.410 15.845547
44.415 16.158367
44.420 16.998857
44.425 16.356098
44.430 15.956479
44.435 15.123566
44.440 13.49373
44.445 12.626112
44.450 13.395356
44.455 14.090034
44.460 14.943222
44.465 15.650089
44.470 15.075471
44.475 14.592811
44.480 13.429983
44.485 12.069167
44.490 11.954392
44.495 11.704195
44.500 10.277624
44.505 8.82581
44.510 8.381357
44.515 8.31167
44.520 7.97489
44.525 7.592143
44.530 7.183985
44.535 7.134982
44.540 7.183315
44.545 6.904248
44.550 6.933289
44.555 5.470442
44.560 4.185128
44.565 3.627769
44.570 3.325481
44.575 3.671299
44.580 3.330742
44.585 3.405074
44.590 3.192824
44.595 2.855573
44.600 2.797668
44.605 2.342756
44.610 2.665841
44.615 2.596911
44.620 2.562274
44.625 2.952746
44.630 3.050971
44.635 3.264958
44.640 2.985407
44.645 2.503819
44.650 2.015764
44.655 2.110097
44.660 2.272059
44.665 2.274559
44.670 2.316882
44.675 2.181862
44.680 2.308259
44.685 1.957462
44.690 2.025792
44.695 1.838598
44.700 1.922584
44.705 1.856904
44.710 1.566849
44.715 1.385021
44.720 0.917527
44.725 0.856484
44.730 1.321959
44.735 1.885903
44.740 2.275032
44.745 2.068709
44.750 1.423547
44.755 1.049922
44.760 1.241406
44.765 1.506173
44.770 1.586819
44.775 1.438197
44.780 1.421132
44.785 2.033109
44.790 2.081044
44.795 1.87595
44.800 1.265713
44.805 0.864744
44.810 1.382595
44.815 1.755526
44.820 1.891155
44.825 1.652281
44.830 1.038055
44.835 0.72057
44.840 0.790425
44.845 0.822363
44.850 1.272227
44.855 1.550672
44.860 2.216056
44.865 2.320264
44.870 2.142572
44.875 1.854859
44.880 1.420963
44.885 1.447813
44.890 1.397898
44.895 1.360303
44.900 0.928192
44.905 1.135715
44.910 1.026472
44.915 1.070994
44.920 1.059431
44.925 1.099821
44.930 1.094283
44.935 1.36561
44.940 1.249884
44.945 1.146597
44.950 0.992645
44.955 0.917783
44.960 1.118168
44.965 1.549482
44.970 1.85509
44.975 1.885686
44.980 1.799319
44.985 1.376533
44.990 1.303796
44.995 1.187878
45.000 1.410699
45.005 1.719692
45.010 2.244986
45.015 2.603823
45.020 2.129704
45.025 1.498526
45.030 1.090624
45.035 0.632443
45.040 1.255291
45.045 1.280851
45.050 1.149342
45.055 1.372705
45.060 1.01104
45.065 1.399216
45.070 1.515117
45.075 1.705447
45.080 1.759019
45.085 1.371129
45.090 1.006546
45.095 1.032326
45.100 1.498806
45.105 1.670174
45.110 1.596687
45.115 1.611345
45.120 1.435563
45.125 1.564188
45.130 1.353665
45.135 1.138143
45.140 1.099794
45.145 1.380574
45.150 1.372549
45.155 1.387669
45.160 1.248249
45.165 1.042598
45.170 1.053632
45.175 1.136116
45.180 1.223177
45.185 1.242539
45.190 1.146908
45.195 1.126698
45.200 1.234917
45.205 1.799152
45.210 1.813933
45.215 1.911576
45.220 1.545255
45.225 1.490953
45.230 1.375615
45.235 1.464254
45.240 1.295476
45.245 1.575052
45.250 1.660894
45.255 1.933387
45.260 1.907797
45.265 2.036959
45.270 1.726741
45.275 1.303061
45.280 0.765489
45.285 0.939316
45.290 1.657867
45.295 2.308882
45.300 2.84152
45.305 2.481177
45.310 2.245189
45.315 1.606049
45.320 1.413997
45.325 1.128528
45.330 1.103762
45.335 1.150021
45.340 1.223955
45.345 1.281028
45.350 1.319092
45.355 1.524274
45.360 1.503663
45.365 1.573622
45.370 1.609869
45.375 1.606207
45.380 1.593926
45.385 1.344197
45.390 0.940859
45.395 0.876655
45.400 0.68215
45.405 0.812745
45.410 1.252677
45.415 1.456471
45.420 1.472329
45.425 1.385128
45.430 1.285118
45.435 1.533016
45.440 1.756605
45.445 1.73502
45.450 1.582045
45.455 1.564961
45.460 1.264522
45.465 1.576971
45.470 1.550174
45.475 1.665276
45.480 1.87677
45.485 2.345651
45.490 2.635895
45.495 2.398028
45.500 1.956903
45.505 1.493064
45.510 0.952444
45.515 0.898902
45.520 1.0424
45.525 1.069035
45.530 1.162818
45.535 1.519172
45.540 1.425257
45.545 1.830385
45.550 1.627264
45.555 1.506799
45.560 1.390759
45.565 1.526634
45.570 1.936368
45.575 2.245763
45.580 2.062011
45.585 1.60482
45.590 1.480277
45.595 1.640671
45.600 1.942116
45.605 1.664566
45.610 0.92369
45.615 0.756024
45.620 0.653162
45.625 1.019863
45.630 1.622447
45.635 1.494227
45.640 1.654621
45.645 0.996028
45.650 1.078297
45.655 0.979828
45.660 1.008783
45.665 1.239512
45.670 1.481533
45.675 1.638491
45.680 1.424521
45.685 1.252149
45.690 1.104432
45.695 1.338479
45.700 1.469807
45.705 1.811448
45.710 1.929039
45.715 1.668003
45.720 1.490956
45.725 1.438184
45.730 1.428539
45.735 1.612912
45.740 1.131499
45.745 1.049751
45.750 1.247287
45.755 1.306779
45.760 1.598411
45.765 1.358722
45.770 1.674397
45.775 1.502883
45.780 1.770938
45.785 1.334051
45.790 1.310609
45.795 1.166735
45.800 1.196399
45.805 1.502056
45.810 1.25464
45.815 1.495501
45.820 1.37161
45.825 1.497596
45.830 1.603744
45.835 1.44471
45.840 1.519096
45.845 1.455253
45.850 1.312408
45.855 1.329557
45.860 1.230347
45.865 1.376623
45.870 1.228093
45.875 1.15957
45.880 1.158399
45.885 1.089429
45.890 1.034232
45.895 1.167909
45.900 1.220052
45.905 1.574147
45.910 2.08423
45.915 2.452663
45.920 2.376055
45.925 1.966496
45.930 1.35903
45.935 1.419107
45.940 1.832616
45.945 1.635166
45.950 1.789929
45.955 1.452209
45.960 1.114636
45.965 1.012249
45.970 0.783947
45.975 1.372248
45.980 1.551328
45.985 1.444322
45.990 1.211821
45.995 1.051729
46.000 1.482406
46.005 1.4795
46.010 1.326994
46.015 1.012245
46.020 0.677975
46.025 0.710082
46.030 0.868053
46.035 1.165177
46.040 1.619494
46.045 1.663758
46.050 1.652387
46.055 1.343822
46.060 1.23931
46.065 1.141991
46.070 0.995818
46.075 1.082575
46.080 1.441486
46.085 1.343211
46.090 1.232922
46.095 0.950143
46.100 0.894864
46.105 0.913781
46.110 0.848642
46.115 0.875328
46.120 0.920396
46.125 0.952988
46.130 0.896899
46.135 1.297174
46.140 1.388141
46.145 1.546898
46.150 1.580159
46.155 1.512283
46.160 1.577039
46.165 1.28592
46.170 0.695667
46.175 0.684148
46.180 0.826071
46.185 0.946303
46.190 0.896666
46.195 0.831992
46.200 1.138621
46.205 1.287439
46.210 1.441532
46.215 1.496707
46.220 1.569004
46.225 1.5102
46.230 1.467614
46.235 1.371115
46.240 1.562809
46.245 1.580838
46.250 1.507549
46.255 1.603917
46.260 1.493768
46.265 1.492722
46.270 1.404328
46.275 1.288962
46.280 1.292531
46.285 0.899383
46.290 0.948088
46.295 1.024894
46.300 1.627126
46.305 1.991991
46.310 2.126029
46.315 1.954505
46.320 1.296695
46.325 1.216711
46.330 1.34915
46.335 1.305483
46.340 1.45795
46.345 1.02238
46.350 0.777787
46.355 0.713738
46.360 0.676593
46.365 0.750676
46.370 0.702477
46.375 0.925635
46.380 0.832793
46.385 0.767581
46.390 0.52221
46.395 0.610569
46.400 0.9918
46.405 1.809922
46.410 2.007746
46.415 1.727534
46.420 1.31074
46.425 0.940764
46.430 0.812075
46.435 0.894938
46.440 0.964184
46.445 1.663047
46.450 1.93775
46.455 1.719193
46.460 1.20172
46.465 1.09404
46.470 1.490002
46.475 1.509872
46.480 1.498506
46.485 1.232746
46.490 1.17447
46.495 1.09672
46.500 1.088385
46.505 1.014718
46.510 1.033976
46.515 0.949158
46.520 1.040408
46.525 1.019336
46.530 1.486596
46.535 1.3376
46.540 1.347465
46.545 1.072672
46.550 1.004725
46.555 0.937234
46.560 0.869569
46.565 0.750369
46.570 0.997881
46.575 1.167628
46.580 1.295386
46.585 0.955598
46.590 0.581543
46.595 0.547951
46.600 1.107859
46.605 1.281006
46.610 1.350231
46.615 0.951597
46.620 0.737028
46.625 1.083483
46.630 1.353203
46.635 1.596457
46.640 1.76674
46.645 1.345199
46.650 1.312771
46.655 1.213896
46.660 1.265962
46.665 1.753827
46.670 2.04816
46.675 1.982935
46.680 1.906153
46.685 1.390472
46.690 1.200724
46.695 1.011556
46.700 1.087979
46.705 1.373309
46.710 1.357801
46.715 1.32345
46.720 1.066768
46.725 1.315864
46.730 1.433174
46.735 1.116824
46.740 0.936211
46.745 0.67638
46.750 0.916132
46.755 1.409402
46.760 1.67605
46.765 1.614964
46.770 1.065558
46.775 0.727285
46.780 0.711989
46.785 1.093089
46.790 1.341538
46.795 1.67032
46.800 1.584396
46.805 1.723821
46.810 1.385777
46.815 1.325391
46.820 0.991342
46.825 0.756262
46.830 0.790589
46.835 0.84072
46.840 0.976546
46.845 1.074836
46.850 0.87959
46.855 1.328764
46.860 1.623891
46.865 1.672278
46.870 1.546773
46.875 0.889388
46.880 1.248746
46.885 1.660125
46.890 2.001033
46.895 1.878287
46.900 1.4046
46.905 1.095312
46.910 1.015463
46.915 1.056636
46.920 1.161835
46.925 1.154278
46.930 1.17189
46.935 1.321735
46.940 1.364778
46.945 1.235766
46.950 0.984896
46.955 0.911493
46.960 0.812242
46.965 0.753227
46.970 0.690141
46.975 1.307207
46.980 1.760481
46.985 1.842043
46.990 1.298576
46.995 0.742586
47.000 0.79794
47.005 1.094294
47.010 1.265052
47.015 0.988135
47.020 1.299555
47.025 1.509553
47.030 1.792297
47.035 1.760722
47.040 1.359638
47.045 1.1364
47.050 1.220561
47.055 1.394067
47.060 1.455114
47.065 1.593814
47.070 1.508285
47.075 1.21285
47.080 0.803888
47.085 1.132118
47.090 1.157572
47.095 1.433751
47.100 1.354408
47.105 1.048466
47.110 1.1412
47.115 1.323403
47.120 1.85397
47.125 1.892682
47.130 1.565343
47.135 1.17776
47.140 0.876834
47.145 1.151839
47.150 1.326506
47.155 1.223802
47.160 1.386551
47.165 1.338123
47.170 1.346778
47.175 1.165793
47.180 0.814942
47.185 0.965295
47.190 1.410522
47.195 1.454938
47.200 1.283243
47.205 1.089526
47.210 0.991917
47.215 1.196472
47.220 1.444364
47.225 1.414576
47.230 1.514599
47.235 1.577229
47.240 1.289912
47.245 1.452429
47.250 1.821221
47.255 2.400702
47.260 2.429711
47.265 1.735064
47.270 0.836952
47.275 0.57892
47.280 0.753406
47.285 0.868969
47.290 1.383818
47.295 1.555
47.300 1.58882
47.305 1.815748
47.310 1.5639
47.315 1.571215
47.320 1.235911
47.325 0.930075
47.330 0.848104
47.335 0.778434
47.340 0.820623
47.345 0.617336
47.350 0.493598
47.355 1.149143
47.360 1.414124
47.365 1.637018
47.370 1.330777
47.375 0.927091
47.380 0.937839
47.385 0.913309
47.390 0.697215
47.395 0.46719
47.400 0.741745
47.405 1.113144
47.410 1.673435
47.415 1.60217
47.420 1.436137
47.425 1.371663
47.430 1.206385
47.435 1.702162
47.440 1.803717
47.445 2.230457
47.450 1.979736
47.455 1.50072
47.460 0.699528
47.465 0.617177
47.470 0.685202
47.475 1.034883
47.480 1.192334
47.485 0.989313
47.490 0.955539
47.495 1.107392
47.500 1.535443
47.505 1.513691
47.510 1.535192
47.515 1.274132
47.520 1.188909
47.525 1.233545
47.530 1.450858
47.535 1.69982
47.540 1.653774
47.545 1.501644
47.550 0.893741
47.555 1.007022
47.560 1.260645
47.565 1.460231
47.570 1.812632
47.575 1.69971
47.580 1.568565
47.585 1.648848
47.590 1.618443
47.595 1.822408
47.600 2.105964
47.605 1.968154
47.610 2.078846
47.615 1.238347
47.620 0.988901
47.625 0.775762
47.630 0.879014
47.635 1.587842
47.640 1.707867
47.645 1.691954
47.650 1.319811
47.655 1.047904
47.660 1.141143
47.665 0.983765
47.670 1.149874
47.675 1.542137
47.680 1.456993
47.685 1.913342
47.690 1.648453
47.695 1.575529
47.700 1.48693
47.705 0.970656
47.710 0.802047
47.715 0.90471
47.720 1.026946
47.725 1.005601
47.730 1.037949
47.735 1.132858
47.740 1.293832
47.745 1.644246
47.750 1.775798
47.755 1.908201
47.760 1.77732
47.765 1.690804
47.770 2.097601
47.775 2.160661
47.780 2.105936
47.785 2.029082
47.790 1.819514
47.795 1.644586
47.800 1.078645
47.805 0.512843
47.810 0.670901
47.815 1.012751
47.820 1.53946
47.825 1.747653
47.830 1.292624
47.835 0.943217
47.840 0.689529
47.845 0.743089
47.850 0.767449
47.855 0.825155
47.860 0.711967
47.865 0.850787
47.870 0.941888
47.875 0.949235
47.880 1.038897
47.885 1.078025
47.890 1.076584
47.895 1.156578
47.900 1.222798
47.905 1.482784
47.910 1.609882
47.915 1.792637
47.920 1.890539
47.925 1.730168
47.930 1.55537
47.935 1.307241
47.940 1.232876
47.945 1.243186
47.950 1.483018
47.955 1.590372
47.960 1.52235
47.965 1.102198
47.970 0.936133
47.975 0.838501
47.980 1.162454
47.985 1.244895
47.990 1.305112
47.995 1.108809
48.000 0.926404
48.005 0.873566
48.010 0.807612
48.015 0.805343
48.020 0.739548
48.025 0.664404
48.030 0.860387
48.035 1.05491
48.040 1.435898
48.045 1.538938
48.050 1.317322
48.055 1.10557
48.060 0.879592
48.065 0.763761
48.070 0.749292
48.075 0.995409
48.080 0.973047
48.085 0.763207
48.090 0.837094
48.095 0.934108
48.100 1.520889
48.105 1.421454
48.110 1.67534
48.115 1.563467
48.120 1.437166
48.125 1.37544
48.130 1.255575
48.135 1.206267
48.140 0.967802
48.145 0.635806
48.150 0.411686
48.155 0.526075
48.160 0.719964
48.165 0.715587
48.170 0.557124
48.175 0.401197
48.180 0.717628
48.185 0.882304
48.190 0.856544
48.195 0.812052
48.200 0.949901
48.205 1.355239
48.210 1.813187
48.215 1.550422
48.220 1.766186
48.225 1.712789
48.230 1.911569
48.235 1.637871
48.240 1.054534
48.245 1.07736
48.250 1.139255
48.255 1.375185
48.260 1.167305
48.265 1.122472
48.270 1.034076
48.275 1.138975
48.280 0.961641
48.285 0.910961
48.290 0.855042
48.295 0.885566
48.300 0.656415
48.305 0.525779
48.310 0.650203
48.315 1.149584
48.320 1.48665
48.325 1.564314
48.330 1.448398
48.335 1.297979
48.340 1.36518
48.345 1.460466
48.350 1.809753
48.355 1.689172
48.360 1.711719
48.365 1.580808
48.370 1.728477
48.375 1.638152
48.380 1.53752
48.385 1.319911
48.390 1.289174
48.395 1.489683
48.400 1.89689
48.405 2.114726
48.410 1.984924
48.415 1.946298
48.420 2.66688
48.425 2.759603
48.430 2.433628
48.435 1.261257
48.440 1.031523
48.445 1.53774
48.450 2.002001
48.455 2.228503
48.460 2.281573
48.465 2.531972
48.470 2.624508
48.475 2.989188
48.480 2.898373
48.485 3.403205
48.490 3.451512
48.495 3.822148
48.500 3.883323
48.505 3.854162
48.510 3.373111
48.515 3.593243
48.520 3.668486
48.525 3.671509
48.530 4.21175
48.535 3.80786
48.540 4.118081
48.545 3.923846
48.550 3.183265
48.555 2.987764
48.560 3.08781
48.565 3.466094
48.570 3.800804
48.575 4.033256
48.580 3.679242
48.585 3.376352
48.590 3.24773
48.595 3.178411
48.600 4.066912
48.605 4.335216
48.610 4.300066
48.615 3.682499
48.620 2.855128
48.625 2.755071
48.630 3.212429
48.635 3.099936
48.640 2.982453
48.645 3.311203
48.650 3.150058
48.655 3.101852
48.660 2.581049
48.665 2.90358
48.670 3.74187
48.675 3.9499
48.680 3.398126
48.685 2.609349
48.690 2.685569
48.695 3.170007
48.700 3.061868
48.705 2.488927
48.710 2.655756
48.715 2.528649
48.720 2.654373
48.725 1.733241
48.730 1.472994
48.735 1.639911
48.740 1.923735
48.745 2.659892
48.750 2.41215
48.755 2.102259
48.760 1.546081
48.765 1.939389
48.770 2.448438
48.775 3.165267
48.780 2.64602
48.785 2.055801
48.790 1.229691
48.795 1.136094
48.800 1.08536
48.805 1.510661
48.810 1.772033
48.815 1.866231
48.820 1.885426
48.825 1.202365
48.830 1.070974
48.835 1.097484
48.840 1.253168
48.845 1.321957
48.850 1.266703
48.855 0.946623
48.860 0.670545
48.865 0.49866
48.870 0.835156
48.875 1.00677
48.880 1.161459
48.885 1.168798
48.890 1.374689
48.895 1.581018
48.900 1.438778
48.905 1.399481
48.910 1.487069
48.915 1.671848
48.920 1.719103
48.925 1.577849
48.930 1.391603
48.935 1.274807
48.940 1.36322
48.945 1.055456
48.950 1.17305
48.955 1.159422
48.960 1.361761
48.965 1.450971
48.970 1.158924
48.975 0.704767
48.980 0.553148
48.985 0.730717
48.990 0.956907
48.995 1.136561
49.000 1.336258
49.005 1.359407
49.010 1.392287
49.015 1.130824
49.020 0.951773
49.025 0.930763
49.030 1.11822
49.035 1.16194
49.040 1.338012
49.045 1.176924
49.050 1.294821
49.055 1.274549
49.060 0.978611
49.065 0.8674
49.070 0.724585
49.075 0.90555
49.080 0.989242
49.085 0.995567
49.090 0.820144
49.095 0.875992
49.100 0.977169
49.105 1.154767
49.110 1.299181
49.115 1.311076
49.120 1.42308
49.125 1.345828
49.130 1.216474
49.135 1.465531
49.140 1.792174
49.145 2.009874
49.150 2.047382
49.155 1.428807
49.160 1.206043
49.165 1.1764
49.170 0.833439
49.175 0.881701
49.180 0.758422
49.185 0.908833
49.190 0.85844
49.195 0.779341
49.200 0.499943
49.205 0.563379
49.210 0.735004
49.215 1.090896
49.220 1.137719
49.225 1.05723
49.230 0.758336
49.235 1.115162
49.240 1.254244
49.245 1.331619
49.250 1.498707
49.255 1.42241
49.260 1.471213
49.265 1.112487
49.270 1.102001
49.275 1.32829
49.280 1.261987
49.285 1.430497
49.290 1.327546
49.295 1.282518
49.300 1.178758
49.305 1.06554
49.310 1.404701
49.315 1.546932
49.320 1.704124
49.325 1.540926
49.330 1.374345
49.335 1.239286
49.340 1.243221
49.345 0.959678
49.350 0.959005
49.355 0.753257
49.360 0.872639
49.365 1.166738
49.370 1.352124
49.375 1.662412
49.380 1.408839
49.385 1.440553
49.390 1.283285
49.395 0.932135
49.400 0.931334
49.405 0.848666
49.410 1.284281
49.415 1.705296
49.420 1.630836
49.425 1.582578
49.430 1.171312
49.435 0.887031
49.440 0.664527
49.445 0.86214
49.450 1.115677
49.455 1.340965
49.460 1.304612
49.465 1.076239
49.470 1.126553
49.475 1.253396
49.480 1.122233
49.485 1.022395
49.490 1.073681
49.495 1.470149
49.500 1.668024
49.505 1.6367
49.510 1.547381
49.515 1.605802
49.520 1.917259
49.525 1.747907
49.530 1.205946
49.535 0.922421
49.540 1.061163
49.545 1.14739
49.550 1.248867
49.555 1.02268
49.560 1.16443
49.565 1.415333
49.570 1.385452
49.575 1.30181
49.580 0.961528
49.585 0.676431
49.590 0.698497
49.595 1.059708
49.600 1.489146
49.605 1.779677
49.610 1.553974
49.615 1.271957
49.620 1.210112
49.625 0.851475
49.630 0.856737
49.635 0.754479
49.640 0.880015
49.645 1.042252
49.650 1.155234
49.655 1.462141
49.660 1.443417
49.665 1.15232
49.670 1.290212
49.675 1.299104
49.680 1.721953
49.685 1.544627
49.690 1.323838
49.695 0.799069
49.700 0.674873
49.705 0.881955
49.710 1.25798
49.715 1.454333
49.720 1.464302
49.725 1.24969
49.730 1.437404
49.735 1.794455
49.740 2.067568
49.745 2.266944
49.750 2.237875
49.755 1.870956
49.760 1.542618
49.765 0.769944
49.770 0.572929
49.775 0.87849
49.780 1.379104
49.785 1.351777
49.790 1.160952
49.795 0.593663
49.800 0.467455
49.805 0.46175
49.810 0.615021
49.815 0.53975
49.820 0.660388
49.825 0.776039
49.830 0.792553
49.835 1.008605
49.840 1.064628
49.845 1.034199
49.850 0.997505
49.855 0.969585
49.860 1.266383
49.865 1.342502
49.870 1.025542
49.875 0.723792
49.880 0.566611
49.885 0.564492
49.890 0.56482
49.895 0.501254
49.900 0.401651
49.905 0.577439
49.910 0.66805
49.915 1.010954
49.920 1.16014
49.925 1.523236
49.930 1.509635
49.935 1.500359
49.940 1.37514
49.945 1.539755
49.950 1.897063
49.955 1.91909
49.960 1.617588
49.965 1.335406
49.970 1.486758
49.975 1.487846
49.980 1.94971
49.985 1.637471
49.990 1.481571
49.995 1.62737
50.000 1.822763
50.005 1.71725
50.010 1.483268
50.015 0.887087
50.020 0.940624
50.025 1.131663
50.030 1.400874
50.035 1.473118
50.040 1.49136
50.045 1.521144
50.050 1.475504
50.055 1.089667
50.060 0.882283
50.065 0.651388
50.070 0.850355
50.075 1.229252
50.080 1.083436
50.085 0.733974
50.090 0.346581
50.095 0.454233
50.100 0.535159
50.105 0.732292
50.110 0.600092
50.115 0.738229
50.120 1.013425
50.125 1.215706
50.130 1.034432
50.135 0.970444
50.140 0.85217
50.145 0.826243
50.150 0.987971
50.155 1.261929
50.160 1.210048
50.165 0.964423
50.170 0.411048
50.175 0.535618
50.180 0.991473
50.185 1.424968
50.190 1.797832
50.195 1.739241
50.200 1.468597
50.205 1.474696
50.210 1.514054
50.215 1.760792
50.220 1.695725
50.225 1.386835
50.230 1.598761
50.235 1.536278
50.240 1.419927
50.245 1.254736
50.250 1.1971
50.255 1.267615
50.260 1.46441
50.265 1.170662
50.270 1.365379
50.275 1.149298
50.280 1.008531
50.285 1.406691
50.290 1.814724
50.295 1.913498
50.300 1.510017
50.305 1.045397
50.310 0.783593
50.315 1.172687
50.320 0.975131
50.325 1.030016
50.330 0.685263
50.335 0.762974
50.340 0.784539
50.345 0.833391
50.350 0.828203
50.355 1.337615
50.360 1.683849
50.365 2.047394
50.370 1.918623
50.375 1.519147
50.380 1.641719
50.385 1.495353
50.390 1.453114
50.395 1.261715
50.400 1.130702
50.405 1.393942
50.410 1.56039
50.415 1.44905
50.420 1.442641
50.425 1.647767
50.430 2.103071
50.435 2.157344
50.440 1.876976
50.445 1.334562
50.450 1.352201
50.455 1.248264
50.460 1.233635
50.465 1.254062
50.470 0.845106
50.475 1.043872
50.480 1.285159
50.485 1.381856
50.490 1.543538
50.495 1.548442
50.500 1.764275
50.505 1.944137
50.510 1.883731
50.515 1.792955
50.520 1.705907
50.525 1.487921
50.530 1.083529
50.535 0.904706
50.540 0.692144
50.545 0.856024
50.550 0.694038
50.555 0.609667
50.560 0.456289
50.565 0.801989
50.570 1.019919
50.575 1.278471
50.580 1.035558
50.585 1.249264
50.590 1.168775
50.595 1.180055
50.600 0.962199
50.605 0.883592
50.610 1.269461
50.615 1.556548
50.620 1.542322
50.625 1.395111
50.630 1.191692
50.635 0.934271
50.640 0.970923
50.645 0.785551
50.650 1.044171
50.655 1.071817
50.660 0.720398
50.665 0.455122
50.670 0.392179
50.675 0.607933
50.680 0.991995
50.685 0.913855
50.690 1.289366
50.695 1.143196
50.700 1.471341
50.705 1.682142
50.710 1.428384
50.715 1.151639
50.720 0.615825
50.725 0.368255
50.730 0.531521
50.735 0.652765
50.740 0.618306
50.745 0.51812
50.750 0.471588
50.755 0.606665
50.760 1.101162
50.765 1.263021
50.770 1.402397
50.775 1.200378
50.780 1.306121
50.785 1.561943
50.790 1.776043
50.795 1.388783
50.800 1.277354
50.805 1.140114
50.810 1.235682
50.815 1.24057
50.820 1.044445
50.825 1.065824
50.830 0.841901
50.835 0.915714
50.840 1.079072
50.845 1.225885
50.850 1.239001
50.855 0.962123
50.860 0.683626
50.865 0.791537
50.870 0.837505
50.875 0.868574
50.880 0.597302
50.885 0.89866
50.890 1.218093
50.895 1.437515
50.900 1.135554
50.905 0.743154
50.910 0.876267
50.915 1.100004
50.920 1.441857
50.925 1.672739
50.930 1.517852
50.935 1.644881
50.940 1.525694
50.945 1.661022
50.950 1.414613
50.955 1.302203
50.960 1.332742
50.965 1.549615
50.970 1.443858
50.975 1.148034
50.980 0.919857
50.985 1.020477
50.990 0.695526
50.995 0.682508
51.000 0.459406
51.005 0.787659
51.010 0.978953
51.015 1.144146
51.020 1.26894
51.025 1.319221
51.030 1.2521
51.035 1.317109
51.040 1.346747
51.045 1.321959
51.050 1.215968
51.055 0.750676
51.060 0.605674
51.065 0.653144
51.070 1.050507
51.075 1.187202
51.080 1.277956
51.085 1.201923
51.090 1.41114
51.095 1.472287
51.100 1.338437
51.105 0.832886
51.110 0.510699
51.115 0.526096
51.120 1.26559
51.125 1.496024
51.130 1.431333
51.135 0.960408
51.140 0.842736
51.145 1.243906
51.150 1.6614
51.155 1.94723
51.160 2.253259
51.165 2.192806
51.170 1.732361
51.175 1.203681
51.180 0.782904
51.185 0.7754
51.190 1.032829
51.195 1.201844
51.200 1.327599
51.205 1.581302
51.210 1.726393
51.215 1.943012
51.220 1.763396
51.225 1.451655
51.230 1.191757
51.235 1.283996
51.240 1.482698
51.245 1.616426
51.250 1.599774
51.255 1.394132
51.260 1.129658
51.265 0.763703
51.270 0.675055
51.275 0.797703
51.280 0.799391
51.285 0.858154
51.290 1.065207
51.295 1.355029
51.300 1.664539
51.305 1.840113
51.310 1.52304
51.315 1.918596
51.320 1.484559
51.325 1.295083
51.330 1.055721
51.335 1.093419
51.340 1.584316
51.345 2.07088
51.350 2.116007
51.355 1.564693
51.360 1.122094
51.365 0.716165
51.370 0.702646
51.375 0.66089
51.380 0.826255
51.385 1.098318
51.390 1.683892
51.395 1.782788
51.400 2.205817
51.405 1.838861
51.410 1.624181
51.415 1.225335
51.420 0.905636
51.425 1.021508
51.430 1.265107
51.435 1.3704
51.440 1.404939
51.445 1.684387
51.450 1.893086
51.455 2.054676
51.460 2.010518
51.465 1.503311
51.470 1.598018
51.475 1.811221
51.480 2.104771
51.485 2.056941
51.490 1.899598
51.495 1.688376
51.500 1.633637
51.505 1.683917
51.510 1.372301
51.515 1.176023
51.520 1.002754
51.525 1.123995
51.530 1.190118
51.535 1.337689
51.540 1.127091
51.545 1.099878
51.550 0.912503
51.555 1.000703
51.560 1.237843
51.565 1.27833
51.570 1.375108
51.575 1.501653
51.580 1.524018
51.585 1.934682
51.590 1.95856
51.595 1.911189
51.600 1.543928
51.605 1.197687
51.610 1.197989
51.615 1.127595
51.620 1.219197
51.625 0.871315
51.630 1.151163
51.635 1.078334
51.640 1.310946
51.645 1.23709
51.650 1.499863
51.655 1.552284
51.660 1.680486
51.665 1.526899
51.670 1.080769
51.675 0.883613
51.680 1.087938
51.685 1.330016
51.690 1.444
51.695 1.453789
51.700 1.145498
51.705 1.097095
51.710 0.887386
51.715 0.767804
51.720 1.058434
51.725 1.474303
51.730 1.549896
51.735 1.443367
51.740 1.520842
51.745 1.579557
51.750 1.880469
51.755 1.739011
51.760 2.112427
51.765 2.096255
51.770 2.338197
51.775 1.893911
51.780 1.907729
51.785 1.683201
51.790 1.475992
51.795 1.30591
51.800 1.197381
51.805 1.090908
51.810 1.097514
51.815 1.007247
51.820 0.999482
51.825 1.069435
51.830 1.347012
51.835 1.635371
51.840 1.554118
51.845 1.174585
51.850 0.673076
51.855 0.597986
51.860 0.902348
51.865 1.458748
51.870 1.513029
51.875 1.353595
51.880 0.900446
51.885 1.126061
51.890 1.142529
51.895 1.211569
51.900 1.118119
51.905 0.884874
51.910 0.935471
51.915 1.040782
51.920 1.155606
51.925 1.167054
51.930 0.910169
51.935 1.080148
51.940 1.220661
51.945 1.340361
51.950 1.081768
51.955 0.868314
51.960 0.727925
51.965 1.018253
51.970 1.037325
51.975 1.019984
51.980 0.969456
51.985 1.08728
51.990 1.499257
51.995 1.658549
52.000 1.647159
52.005 1.495473
52.010 1.396537
52.015 1.399532
52.020 1.176916
52.025 1.322207
52.030 1.379846
52.035 1.137706
52.040 1.161622
52.045 1.673839
52.050 2.100798
52.055 1.943075
52.060 1.75417
52.065 1.339362
52.070 1.386977
52.075 1.265967
52.080 1.203438
52.085 1.267158
52.090 1.422206
52.095 1.560746
52.100 1.27674
52.105 1.474858
52.110 1.344205
52.115 1.468467
52.120 1.489672
52.125 1.625842
52.130 1.577484
52.135 1.074259
52.140 0.785251
52.145 0.726546
52.150 0.872377
52.155 0.988512
52.160 1.306522
52.165 1.137056
52.170 1.317153
52.175 0.942445
52.180 0.86787
52.185 0.662096
52.190 0.311746
52.195 0.645375
52.200 0.95757
52.205 1.559523
52.210 1.7168
52.215 1.412769
52.220 1.290419
52.225 1.077795
52.230 1.149201
52.235 1.256798
52.240 1.123694
52.245 0.919465
52.250 0.94871
52.255 1.10793
52.260 1.12058
52.265 1.401474
52.270 1.456497
52.275 1.41542
52.280 1.034757
52.285 1.21285
52.290 1.40236
52.295 1.702829
52.300 1.522289
52.305 1.449406
52.310 1.298848
52.315 1.205833
52.320 0.881195
52.325 0.724284
52.330 0.866822
52.335 1.112655
52.340 1.928129
52.345 2.023973
52.350 2.492617
52.355 2.068902
52.360 2.046405
52.365 1.948915
52.370 1.768681
52.375 1.888071
52.380 1.592233
52.385 1.355783
52.390 1.090907
52.395 1.120612
52.400 1.166427
52.405 1.323106
52.410 1.355502
52.415 1.250132
52.420 0.962534
52.425 0.787221
52.430 0.901347
52.435 1.01188
52.440 1.55304
52.445 1.693653
52.450 1.669254
52.455 1.579941
52.460 1.263996
52.465 1.368894
52.470 1.703222
52.475 1.622895
52.480 1.616882
52.485 1.396577
52.490 1.43051
52.495 1.387769
52.500 1.504547
