!@!!GADDS PLOTSO FILE: Chi integration type
!@!!Title/SampleName: LiMn2O4 Li1 to Li0 to Li0.8
!@!!Comment: ?. Sample cathode material from Argonne
!@!!User: Bruker Instrument Administrator
!@!!Site: University of Illinois Chicago
!@!!Frame: C:\Users\Bruker\Documents\wolf-research\LiMn2O4-preliminary\split-0_01_000.gfrm
!@!!Wavelengths    1.54184   1.54056   1.54439
!@!!Frame angles: 2Theta: 41.250 Omega: 30.000 Phi: 0.000 Chi: 90.000
!@!!Integration range: 2Theta: 32.500 to 52.500  Gamma: -97.000 to -83.100
!@!!Integration method: bin normalized
!@!N
!@!SS
!@!M
!@!L 0.0 0.0 0.0 0.0
!@!XDegrees
!@!YCounts
32.500 219.88913
32.505 221.781204
32.510 224.837982
32.515 221.687469
32.520 221.42569
32.525 215.571869
32.530 217.687698
32.535 218.583069
32.540 221.014282
32.545 225.302948
32.550 217.370911
32.555 212.205276
32.560 209.773132
32.565 213.906509
32.570 219.627914
32.575 224.497818
32.580 230.738113
32.585 228.346542
32.590 226.547012
32.595 217.206253
32.600 212.519348
32.605 222.817551
32.610 227.195175
32.615 231.981781
32.620 226.479675
32.625 226.479553
32.630 228.154236
32.635 226.627029
32.640 226.671143
32.645 219.167343
32.650 233.035202
32.655 243.501495
32.660 255.22403
32.665 255.346756
32.670 245.672195
32.675 244.668442
32.680 243.694717
32.685 240.667496
32.690 237.407608
32.695 239.473099
32.700 241.64888
32.705 241.238586
32.710 240.0858
32.715 241.297379
32.720 252.195999
32.725 257.334503
32.730 256.57074
32.735 244.789352
32.740 236.294312
32.745 228.843201
32.750 217.561768
32.755 222.069885
32.760 225.168671
32.765 239.256683
32.770 240.473618
32.775 243.488998
32.780 244.178345
32.785 238.846375
32.790 236.475449
32.795 230.471268
32.800 231.888138
32.805 234.600754
32.810 230.204025
32.815 225.774307
32.820 220.066574
32.825 218.669083
32.830 220.572601
32.835 219.973282
32.840 221.212006
32.845 225.289093
32.850 229.63942
32.855 237.39473
32.860 235.094315
32.865 233.861099
32.870 232.414597
32.875 234.328506
32.880 239.451614
32.885 245.671127
32.890 257.721222
32.895 257.979584
32.900 261.940704
32.905 254.265457
32.910 260.607574
32.915 262.623749
32.920 268.064453
32.925 259.657837
32.930 261.391724
32.935 265.735138
32.940 266.137268
32.945 266.605194
32.950 257.270996
32.955 252.115128
32.960 243.127594
32.965 240.387299
32.970 239.983612
32.975 240.709213
32.980 244.086655
32.985 251.792007
32.990 251.586945
32.995 250.651062
33.000 243.776459
33.005 241.589859
33.010 250.27681
33.015 257.551514
33.020 261.440521
33.025 257.240356
33.030 249.422028
33.035 244.341568
33.040 247.12529
33.045 244.277115
33.050 243.784531
33.055 240.117096
33.060 243.939453
33.065 246.333755
33.070 253.863647
33.075 251.884399
33.080 258.751709
33.085 260.01181
33.090 258.167755
33.095 262.99054
33.100 255.491959
33.105 256.577515
33.110 252.672318
33.115 253.523468
33.120 255.199936
33.125 258.358154
33.130 257.820343
33.135 257.991058
33.140 255.586868
33.145 258.440216
33.150 251.64267
33.155 246.718292
33.160 238.400665
33.165 228.568771
33.170 233.568878
33.175 238.419785
33.180 239.543777
33.185 251.954666
33.190 255.387512
33.195 256.78656
33.200 253.29451
33.205 254.130676
33.210 261.520294
33.215 268.086578
33.220 262.103333
33.225 247.394989
33.230 240.240555
33.235 240.307281
33.240 252.324844
33.245 262.923187
33.250 267.889404
33.255 266.097595
33.260 263.791107
33.265 260.28891
33.270 262.951233
33.275 254.812592
33.280 249.011581
33.285 254.665726
33.290 261.642029
33.295 263.41629
33.300 260.766998
33.305 257.533142
33.310 265.379791
33.315 270.776184
33.320 266.440948
33.325 269.531403
33.330 273.219086
33.335 279.470703
33.340 277.88739
33.345 269.699707
33.350 271.372955
33.355 275.121948
33.360 284.729584
33.365 277.915344
33.370 275.8862
33.375 264.875366
33.380 269.841705
33.385 275.187836
33.390 271.376892
33.395 276.217926
33.400 272.33017
33.405 268.246002
33.410 264.06778
33.415 258.31076
33.420 255.90097
33.425 262.980316
33.430 266.598816
33.435 261.42926
33.440 257.217957
33.445 253.923309
33.450 259.263397
33.455 265.608307
33.460 276.988525
33.465 282.860687
33.470 285.537415
33.475 291.055145
33.480 287.092896
33.485 284.584839
33.490 289.250305
33.495 277.712189
33.500 272.775574
33.505 256.167328
33.510 252.997253
33.515 250.710526
33.520 263.15921
33.525 270.402008
33.530 279.85611
33.535 280.348083
33.540 283.119537
33.545 278.662689
33.550 271.779327
33.555 263.907684
33.560 258.433838
33.565 267.233917
33.570 274.481689
33.575 271.708344
33.580 280.45697
33.585 277.533966
33.590 280.709381
33.595 277.503143
33.600 272.021332
33.605 267.328796
33.610 263.975983
33.615 260.519379
33.620 259.52356
33.625 268.066956
33.630 262.785095
33.635 256.015167
33.640 258.244141
33.645 264.923889
33.650 283.349884
33.655 287.413147
33.660 277.006683
33.665 268.302551
33.670 262.584686
33.675 266.808167
33.680 277.297424
33.685 284.195099
33.690 284.89682
33.695 278.925568
33.700 266.620789
33.705 266.77182
33.710 257.102509
33.715 260.133484
33.720 259.40506
33.725 265.96933
33.730 283.470398
33.735 292.237976
33.740 297.372345
33.745 293.638794
33.750 283.679626
33.755 281.440155
33.760 283.874084
33.765 282.616577
33.770 280.889618
33.775 278.41748
33.780 278.071747
33.785 298.185455
33.790 303.803711
33.795 299.793884
33.800 281.045471
33.805 272.54837
33.810 270.331207
33.815 277.969391
33.820 277.351044
33.825 279.223511
33.830 276.597168
33.835 279.075317
33.840 280.708405
33.845 277.142334
33.850 271.238037
33.855 271.414581
33.860 273.802979
33.865 280.599457
33.870 289.472137
33.875 283.579926
33.880 281.741669
33.885 282.928192
33.890 285.041443
33.895 291.93689
33.900 293.15802
33.905 290.79776
33.910 288.440216
33.915 283.814667
33.920 287.655823
33.925 288.81723
33.930 290.919617
33.935 286.397491
33.940 284.821045
33.945 288.691772
33.950 291.220795
33.955 290.351837
33.960 294.094818
33.965 290.394104
33.970 291.625122
33.975 294.51413
33.980 294.021973
33.985 297.93103
33.990 280.101776
33.995 277.38913
34.000 268.765564
34.005 271.852966
34.010 272.514923
34.015 276.152008
34.020 287.106201
34.025 294.732117
34.030 291.43634
34.035 282.693207
34.040 286.263214
34.045 293.013
34.050 297.580597
34.055 295.428192
34.060 285.738739
34.065 290.211243
34.070 288.485748
34.075 295.316956
34.080 297.439514
34.085 294.114105
34.090 294.50882
34.095 281.685333
34.100 285.340424
34.105 288.93277
34.110 294.834045
34.115 293.986053
34.120 283.280762
34.125 288.758881
34.130 295.793182
34.135 306.51767
34.140 303.584534
34.145 295.73941
34.150 294.252014
34.155 298.02359
34.160 296.311035
34.165 289.48938
34.170 284.384949
34.175 289.662506
34.180 298.82019
34.185 304.53418
34.190 304.419769
34.195 312.512451
34.200 316.278625
34.205 319.888489
34.210 320.123444
34.215 307.206757
34.220 299.904694
34.225 297.21521
34.230 300.420227
34.235 299.022888
34.240 293.853455
34.245 299.369263
34.250 300.104431
34.255 306.34906
34.260 306.955658
34.265 311.533325
34.270 312.811676
34.275 312.923126
34.280 311.268433
34.285 304.397583
34.290 309.145569
34.295 302.71933
34.300 306.559052
34.305 312.335541
34.310 312.248749
34.315 305.595673
34.320 290.544891
34.325 288.681274
34.330 291.249786
34.335 299.195007
34.340 297.957886
34.345 299.110321
34.350 306.859283
34.355 311.805054
34.360 315.388397
34.365 305.849609
34.370 296.565552
34.375 295.385437
34.380 310.407074
34.385 324.805115
34.390 332.035736
34.395 325.442993
34.400 325.693176
34.405 320.775177
34.410 330.833954
34.415 335.194122
34.420 334.772736
34.425 328.240509
34.430 321.599152
34.435 318.066101
34.440 318.649567
34.445 319.617279
34.450 314.798096
34.455 304.829773
34.460 299.552795
34.465 304.438873
34.470 313.909027
34.475 326.596497
34.480 323.063446
34.485 328.935669
34.490 324.947083
34.495 325.480988
34.500 310.043671
34.505 296.714447
34.510 297.765594
34.515 302.74176
34.520 316.947754
34.525 317.723022
34.530 319.959015
34.535 317.767487
34.540 321.084198
34.545 320.292236
34.550 314.783325
34.555 322.106232
34.560 323.393768
34.565 321.621124
34.570 322.592987
34.575 311.463654
34.580 320.16629
34.585 329.46109
34.590 335.103577
34.595 331.581116
34.600 322.076141
34.605 317.969574
34.610 315.603485
34.615 315.955566
34.620 317.118988
34.625 318.784546
34.630 325.651642
34.635 318.539459
34.640 329.303345
34.645 325.916107
34.650 332.040436
34.655 319.760651
34.660 317.858704
34.665 320.172394
34.670 321.505219
34.675 313.562988
34.680 306.620148
34.685 300.15271
34.690 306.208649
34.695 310.676971
34.700 312.610565
34.705 322.110199
34.710 319.712219
34.715 319.193329
34.720 319.736237
34.725 321.26062
34.730 325.159851
34.735 319.932587
34.740 318.558014
34.745 322.424866
34.750 326.950867
34.755 331.357971
34.760 327.067657
34.765 322.938385
34.770 318.91983
34.775 315.733521
34.780 314.377625
34.785 312.999786
34.790 311.626984
34.795 312.726227
34.800 317.614319
34.805 319.429749
34.810 320.686432
34.815 320.180298
34.820 321.123993
34.825 322.088226
34.830 323.907501
34.835 319.183838
34.840 318.466766
34.845 314.477173
34.850 317.482391
34.855 314.80899
34.860 311.830872
34.865 322.053375
34.870 324.881165
34.875 328.724548
34.880 327.436707
34.885 321.086975
34.890 323.397217
34.895 316.907715
34.900 315.599182
34.905 322.027527
34.910 314.729736
34.915 311.558746
34.920 298.359467
34.925 305.587738
34.930 308.639221
34.935 322.763214
34.940 328.818176
34.945 334.890137
34.950 334.057953
34.955 331.393372
34.960 337.863983
34.965 335.670471
34.970 337.571106
34.975 339.749725
34.980 336.245514
34.985 334.652344
34.990 338.286407
34.995 339.608704
35.000 340.737183
35.005 339.598358
35.010 325.876984
35.015 324.137634
35.020 330.860229
35.025 330.360382
35.030 334.612549
35.035 324.725372
35.040 332.026855
35.045 325.695496
35.050 334.000122
35.055 328.382172
35.060 322.449585
35.065 325.988159
35.070 335.881653
35.075 346.639984
35.080 339.94455
35.085 337.399994
35.090 329.278748
35.095 341.986694
35.100 341.791809
35.105 338.962311
35.110 332.744873
35.115 333.507965
35.120 338.876221
35.125 346.847717
35.130 349.708618
35.135 339.719147
35.140 337.313538
35.145 339.764984
35.150 342.04248
35.155 346.006683
35.160 332.816681
35.165 324.775787
35.170 322.315369
35.175 334.503265
35.180 353.105804
35.185 361.844849
35.190 365.494843
35.195 359.622345
35.200 360.199341
35.205 352.973663
35.210 353.696289
35.215 344.843445
35.220 348.747803
35.225 351.592407
35.230 363.225739
35.235 359.339264
35.240 353.824738
35.245 344.711365
35.250 340.618591
35.255 345.371399
35.260 348.612579
35.265 343.265015
35.270 338.819031
35.275 324.364899
35.280 325.254303
35.285 320.116394
35.290 332.720093
35.295 339.656097
35.300 348.165527
35.305 344.324799
35.310 340.694946
35.315 333.920349
35.320 336.669708
35.325 333.358917
35.330 337.296295
35.335 344.398438
35.340 344.346527
35.345 344.069946
35.350 339.814484
35.355 341.238007
35.360 350.110809
35.365 353.600128
35.370 355.447998
35.375 356.703827
35.380 354.442291
35.385 343.579407
35.390 328.5289
35.395 315.696472
35.400 322.148041
35.405 327.851837
35.410 332.352875
35.415 337.504913
35.420 341.903412
35.425 343.962402
35.430 344.86557
35.435 335.43573
35.440 331.970734
35.445 326.565674
35.450 328.989532
35.455 328.36261
35.460 329.410767
35.465 334.309998
35.470 329.029053
35.475 339.852448
35.480 344.982574
35.485 343.882813
35.490 343.510376
35.495 332.20575
35.500 334.509705
35.505 340.654388
35.510 351.698822
35.515 354.698792
35.520 359.601318
35.525 355.304047
35.530 355.249451
35.535 358.204926
35.540 363.599762
35.545 372.52121
35.550 368.770203
35.555 354.220978
35.560 341.343323
35.565 327.265472
35.570 338.92926
35.575 348.578308
35.580 362.698425
35.585 376.766083
35.590 380.035828
35.595 377.51535
35.600 362.980927
35.605 359.881592
35.610 363.953949
35.615 365.9841
35.620 358.271698
35.625 343.114563
35.630 342.006256
35.635 353.120331
35.640 361.274292
35.645 368.275208
35.650 371.224548
35.655 374.951416
35.660 363.403503
35.665 365.937622
35.670 368.644531
35.675 384.308655
35.680 383.928711
35.685 372.54953
35.690 359.907135
35.695 360.101685
35.700 369.056549
35.705 376.483154
35.710 379.948059
35.715 382.841431
35.720 402.100067
35.725 403.576324
35.730 404.372772
35.735 400.205688
35.740 412.478149
35.745 410.871063
35.750 412.756439
35.755 415.548859
35.760 414.088776
35.765 418.973846
35.770 414.7883
35.775 412.303406
35.780 422.364899
35.785 436.594849
35.790 451.5383
35.795 459.431396
35.800 469.368378
35.805 475.795227
35.810 473.402466
35.815 476.949951
35.820 462.919739
35.825 461.385071
35.830 460.769623
35.835 466.560486
35.840 469.485535
35.845 467.075134
35.850 468.802765
35.855 469.862152
35.860 475.871033
35.865 476.708069
35.870 475.495789
35.875 483.814514
35.880 478.60907
35.885 475.310608
35.890 461.271667
35.895 451.816528
35.900 437.950775
35.905 428.653381
35.910 418.25824
35.915 428.515594
35.920 439.227234
35.925 451.022034
35.930 453.288513
35.935 452.657623
35.940 452.080017
35.945 455.43576
35.950 454.893463
35.955 445.53833
35.960 435.863037
35.965 429.977814
35.970 425.615906
35.975 414.494232
35.980 411.132019
35.985 409.083435
35.990 415.271362
35.995 417.526794
36.000 412.26001
36.005 414.067902
36.010 418.002045
36.015 415.333191
36.020 414.861969
36.025 413.983154
36.030 395.57962
36.035 391.389618
36.040 387.556335
36.045 386.097168
36.050 384.078033
36.055 361.799469
36.060 362.002686
36.065 363.571106
36.070 376.309723
36.075 373.972015
36.080 369.354034
36.085 373.514557
36.090 383.679352
36.095 392.987946
36.100 388.877655
36.105 378.071594
36.110 377.741211
36.115 379.491425
36.120 389.723999
36.125 387.313812
36.130 386.979248
36.135 390.34256
36.140 395.022614
36.145 401.062286
36.150 405.799133
36.155 404.493744
36.160 408.4198
36.165 407.658844
36.170 399.209869
36.175 399.044983
36.180 393.473938
36.185 406.282745
36.190 420.516205
36.195 418.288605
36.200 424.819458
36.205 414.174896
36.210 420.804352
36.215 428.657623
36.220 434.616028
36.225 438.398499
36.230 438.883972
36.235 452.118866
36.240 464.436035
36.245 474.220123
36.250 487.871155
36.255 490.508392
36.260 487.798309
36.265 491.844604
36.270 496.514954
36.275 500.856812
36.280 499.316742
36.285 490.530731
36.290 479.683105
36.295 483.980011
36.300 482.078064
36.305 482.391388
36.310 489.474091
36.315 475.230042
36.320 480.85144
36.325 472.753479
36.330 473.222046
36.335 468.628998
36.340 470.529999
36.345 471.07959
36.350 468.459167
36.355 463.336029
36.360 446.161774
36.365 438.982391
36.370 437.108063
36.375 437.910156
36.380 438.154205
36.385 444.986359
36.390 443.567017
36.395 448.103333
36.400 461.216064
36.405 453.550873
36.410 448.836487
36.415 444.110748
36.420 434.997589
36.425 430.618378
36.430 425.704498
36.435 425.218262
36.440 420.297028
36.445 417.833496
36.450 420.872192
36.455 417.125427
36.460 416.190033
36.465 406.092529
36.470 400.696198
36.475 400.162262
36.480 399.734192
36.485 393.998932
36.490 388.853302
36.495 380.905762
36.500 371.182343
36.505 369.105927
36.510 359.808899
36.515 365.423279
36.520 364.994904
36.525 367.143829
36.530 371.117828
36.535 374.977386
36.540 387.298065
36.545 390.153442
36.550 393.813232
36.555 390.19632
36.560 388.981628
36.565 387.698303
36.570 388.438446
36.575 398.361908
36.580 395.537933
36.585 387.175934
36.590 376.514313
36.595 360.647552
36.600 355.387054
36.605 367.777832
36.610 371.674225
36.615 385.808075
36.620 382.530243
36.625 377.624176
36.630 382.971649
36.635 386.666077
36.640 392.263
36.645 387.635376
36.650 385.791626
36.655 371.697784
36.660 374.855255
36.665 367.596985
36.670 363.289764
36.675 359.517639
36.680 359.222504
36.685 363.052155
36.690 378.500092
36.695 382.009857
36.700 382.386536
36.705 378.595093
36.710 367.931183
36.715 370.505219
36.720 370.390991
36.725 370.537933
36.730 369.394714
36.735 365.6763
36.740 362.185028
36.745 362.248322
36.750 354.10733
36.755 361.028351
36.760 374.296844
36.765 373.349792
36.770 369.7836
36.775 351.209473
36.780 340.220978
36.785 351.9021
36.790 359.256531
36.795 361.976074
36.800 352.683838
36.805 347.159668
36.810 360.530701
36.815 361.313843
36.820 370.828949
36.825 372.893646
36.830 368.657806
36.835 368.264252
36.840 365.026978
36.845 367.66391
36.850 380.460754
36.855 373.457184
36.860 367.965973
36.865 358.444305
36.870 367.799469
36.875 370.950623
36.880 368.776184
36.885 358.778046
36.890 354.008972
36.895 364.709869
36.900 381.12561
36.905 387.216522
36.910 384.683197
36.915 370.045837
36.920 365.676819
36.925 374.14267
36.930 386.309631
36.935 391.630981
36.940 383.886353
36.945 367.706757
36.950 356.698364
36.955 362.202087
36.960 366.192627
36.965 378.488251
36.970 379.95929
36.975 372.927521
36.980 371.130096
36.985 366.847961
36.990 377.708954
36.995 384.960144
37.000 384.421509
37.005 378.502747
37.010 370.538147
37.015 367.362335
37.020 367.577972
37.025 364.983063
37.030 368.307861
37.035 365.109802
37.040 369.515625
37.045 381.363861
37.050 379.615753
37.055 387.752411
37.060 378.302368
37.065 369.417816
37.070 365.982544
37.075 360.588074
37.080 364.688599
37.085 364.717499
37.090 368.470673
37.095 366.964355
37.100 367.199249
37.105 360.521057
37.110 367.260132
37.115 369.608551
37.120 372.299622
37.125 372.543762
37.130 357.458069
37.135 355.922791
37.140 359.303375
37.145 370.310791
37.150 381.282715
37.155 382.91803
37.160 382.942322
37.165 384.098999
37.170 390.720154
37.175 388.700775
37.180 382.01181
37.185 373.367371
37.190 370.219818
37.195 367.498871
37.200 373.457092
37.205 373.6922
37.210 363.492218
37.215 353.677551
37.220 349.161285
37.225 356.516052
37.230 372.863525
37.235 388.094482
37.240 393.677856
37.245 400.368866
37.250 397.922363
37.255 394.40686
37.260 384.50174
37.265 380.945679
37.270 372.480408
37.275 368.79303
37.280 369.988281
37.285 364.002747
37.290 364.011932
37.295 363.943176
37.300 365.472504
37.305 370.126099
37.310 371.904083
37.315 371.296295
37.320 365.654938
37.325 362.013977
37.330 356.127045
37.335 361.21225
37.340 365.136536
37.345 372.129669
37.350 379.239899
37.355 390.689301
37.360 391.371399
37.365 392.555878
37.370 378.217438
37.375 370.389557
37.380 382.024292
37.385 380.767029
37.390 390.451385
37.395 391.210785
37.400 392.212158
37.405 392.506958
37.410 383.269623
37.415 380.587585
37.420 379.596436
37.425 378.147644
37.430 378.138611
37.435 379.018433
37.440 398.192444
37.445 407.763855
37.450 402.881012
37.455 397.839264
37.460 390.669098
37.465 395.905579
37.470 398.040894
37.475 390.639679
37.480 382.890778
37.485 367.85791
37.490 371.196228
37.495 397.825439
37.500 421.36438
37.505 433.854584
37.510 427.968903
37.515 414.557861
37.520 411.619812
37.525 413.459656
37.530 391.142365
37.535 386.213776
37.540 377.089142
37.545 384.808472
37.550 391.004333
37.555 394.849518
37.560 401.766632
37.565 413.10257
37.570 420.948181
37.575 417.510254
37.580 416.880432
37.585 407.298401
37.590 404.291687
37.595 409.118164
37.600 408.969177
37.605 414.673065
37.610 415.424072
37.615 412.441864
37.620 416.446503
37.625 407.916992
37.630 408.672607
37.635 396.435028
37.640 397.228302
37.645 398.058441
37.650 393.492523
37.655 399.504242
37.660 400.285248
37.665 407.263641
37.670 413.58551
37.675 420.525482
37.680 415.759644
37.685 412.781677
37.690 397.96167
37.695 395.027466
37.700 407.373016
37.705 416.873047
37.710 418.874359
37.715 411.805481
37.720 392.781708
37.725 392.80365
37.730 392.474518
37.735 387.054016
37.740 383.109039
37.745 374.722656
37.750 375.478851
37.755 380.558472
37.760 384.682739
37.765 390.86792
37.770 408.96698
37.775 414.824738
37.780 410.750885
37.785 404.129822
37.790 399.243195
37.795 395.927277
37.800 404.565125
37.805 406.161407
37.810 402.636719
37.815 390.589935
37.820 388.385925
37.825 392.302551
37.830 401.943512
37.835 402.207153
37.840 400.068054
37.845 398.997498
37.850 399.462799
37.855 399.969696
37.860 400.079803
37.865 396.057465
37.870 399.484283
37.875 402.452118
37.880 398.347076
37.885 395.891663
37.890 390.099274
37.895 382.814178
37.900 390.891968
37.905 389.793091
37.910 387.212982
37.915 385.665588
37.920 392.25882
37.925 395.27533
37.930 400.997559
37.935 397.395477
37.940 395.852203
37.945 393.279633
37.950 392.751678
37.955 391.470795
37.960 396.215393
37.965 399.329041
37.970 410.319794
37.975 420.621429
37.980 417.201843
37.985 408.46701
37.990 404.630829
37.995 398.512451
38.000 401.312836
38.005 401.542816
38.010 403.398102
38.015 400.993927
38.020 396.273071
38.025 397.562927
38.030 404.069092
38.035 413.563477
38.040 418.927917
38.045 425.887482
38.050 428.003418
38.055 423.515869
38.060 412.772034
38.065 409.657288
38.070 415.399414
38.075 426.491577
38.080 438.240784
38.085 440.673645
38.090 426.23288
38.095 420.213959
38.100 424.421265
38.105 424.5466
38.110 420.057678
38.115 419.889801
38.120 423.227264
38.125 439.067444
38.130 446.894348
38.135 440.137482
38.140 435.156891
38.145 433.391449
38.150 420.724945
38.155 413.044952
38.160 410.932526
38.165 411.776001
38.170 426.41153
38.175 441.187469
38.180 442.381287
38.185 442.513336
38.190 423.927948
38.195 413.075226
38.200 408.495758
38.205 410.869904
38.210 412.730865
38.215 420.67038
38.220 418.467896
38.225 417.008728
38.230 411.122345
38.235 409.163879
38.240 418.109039
38.245 410.776672
38.250 411.340424
38.255 397.19278
38.260 388.011292
38.265 386.315979
38.270 392.541809
38.275 407.653564
38.280 407.27002
38.285 402.083435
38.290 397.357758
38.295 400.859314
38.300 417.15033
38.305 419.673218
38.310 416.360687
38.315 411.670258
38.320 405.105011
38.325 411.778778
38.330 411.622833
38.335 410.347504
38.340 408.076599
38.345 412.250671
38.350 416.959778
38.355 423.295044
38.360 416.568298
38.365 404.815247
38.370 406.496338
38.375 402.282837
38.380 404.492554
38.385 402.470306
38.390 392.930847
38.395 402.655273
38.400 406.793182
38.405 409.391266
38.410 410.70697
38.415 400.869415
38.420 396.035065
38.425 396.181824
38.430 396.283478
38.435 399.206055
38.440 397.716705
38.445 390.640656
38.450 396.004669
38.455 397.156281
38.460 391.036987
38.465 402.715546
38.470 395.190582
38.475 397.156219
38.480 385.403351
38.485 382.204834
38.490 384.271912
38.495 400.004211
38.500 401.517883
38.505 407.037048
38.510 401.127869
38.515 392.007172
38.520 387.398315
38.525 386.291748
38.530 392.85553
38.535 401.449554
38.540 401.616882
38.545 397.157593
38.550 387.564575
38.555 388.011475
38.560 391.77179
38.565 390.65097
38.570 393.010406
38.575 393.750854
38.580 393.670776
38.585 393.374298
38.590 387.454224
38.595 382.902069
38.600 387.312134
38.605 389.715424
38.610 399.029816
38.615 410.400116
38.620 407.946106
38.625 414.4729
38.630 410.904877
38.635 422.675476
38.640 424.5979
38.645 423.023254
38.650 405.396301
38.655 390.55658
38.660 387.472046
38.665 388.312195
38.670 394.667664
38.675 403.846436
38.680 404.310364
38.685 408.562836
38.690 405.791229
38.695 397.384796
38.700 388.30127
38.705 392.864288
38.710 397.419861
38.715 408.633911
38.720 407.353363
38.725 400.516449
38.730 407.805939
38.735 413.831665
38.740 422.409424
38.745 420.626373
38.750 405.607025
38.755 399.992554
38.760 399.158386
38.765 408.760559
38.770 412.190338
38.775 409.915741
38.780 400.523682
38.785 401.15564
38.790 389.332733
38.795 389.834167
38.800 381.24585
38.805 375.435028
38.810 385.844849
38.815 390.312958
38.820 402.90863
38.825 405.725372
38.830 393.295258
38.835 393.243835
38.840 389.94223
38.845 401.724213
38.850 403.389069
38.855 398.617737
38.860 383.569702
38.865 373.59137
38.870 381.735107
38.875 392.955444
38.880 415.736481
38.885 413.406097
38.890 414.824249
38.895 406.972351
38.900 408.211914
38.905 406.786102
38.910 409.104523
38.915 413.345734
38.920 414.372864
38.925 416.474579
38.930 402.337128
38.935 401.184692
38.940 402.654938
38.945 408.687469
38.950 406.749786
38.955 396.974274
38.960 394.114014
38.965 402.603912
38.970 415.377075
38.975 413.29483
38.980 416.101959
38.985 403.040009
38.990 399.980225
38.995 396.21344
39.000 393.55304
39.005 406.495148
39.010 412.279877
39.015 419.224274
39.020 419.046692
39.025 413.769531
39.030 411.123871
39.035 420.029205
39.040 431.007416
39.045 433.532837
39.050 422.548828
39.055 410.066589
39.060 406.306824
39.065 403.804077
39.070 393.338684
39.075 387.092896
39.080 389.213013
39.085 399.238342
39.090 410.137207
39.095 408.136841
39.100 404.123169
39.105 411.461426
39.110 415.8479
39.115 419.733063
39.120 416.468445
39.125 406.75946
39.130 405.052704
39.135 401.203674
39.140 391.123016
39.145 388.451874
39.150 383.802582
39.155 388.782196
39.160 401.04892
39.165 398.898865
39.170 402.858398
39.175 405.88559
39.180 409.079315
39.185 408.328583
39.190 419.647919
39.195 412.642487
39.200 413.149139
39.205 406.304474
39.210 404.613129
39.215 409.446167
39.220 406.151276
39.225 405.106781
39.230 411.476715
39.235 421.029968
39.240 424.358002
39.245 427.804352
39.250 421.561981
39.255 422.922729
39.260 418.16925
39.265 412.266937
39.270 412.164673
39.275 413.203979
39.280 418.266937
39.285 415.047241
39.290 421.814209
39.295 419.649536
39.300 423.221985
39.305 419.093964
39.310 411.197388
39.315 403.51886
39.320 396.593658
39.325 391.061401
39.330 403.822784
39.335 417.28244
39.340 424.444824
39.345 409.936859
39.350 389.3526
39.355 377.508942
39.360 379.591827
39.365 396.9758
39.370 405.91098
39.375 406.210541
39.380 409.529327
39.385 416.978516
39.390 420.582092
39.395 424.867371
39.400 405.580841
39.405 399.66037
39.410 394.865326
39.415 410.818542
39.420 419.130615
39.425 418.070526
39.430 410.702423
39.435 399.65799
39.440 404.745087
39.445 415.217621
39.450 418.84082
39.455 415.316559
39.460 414.677094
39.465 410.655029
39.470 404.677155
39.475 406.833649
39.480 405.738861
39.485 408.739227
39.490 411.97937
39.495 416.461731
39.500 428.035675
39.505 430.127319
39.510 428.44693
39.515 424.852509
39.520 420.55307
39.525 417.085449
39.530 415.204041
39.535 423.168732
39.540 427.965149
39.545 434.197784
39.550 434.117584
39.555 415.397797
39.560 410.028503
39.565 399.36496
39.570 403.748505
39.575 416.485718
39.580 421.207764
39.585 432.118866
39.590 430.684479
39.595 428.449249
39.600 432.420837
39.605 436.146149
39.610 431.674988
39.615 423.253906
39.620 418.611542
39.625 416.769379
39.630 416.254181
39.635 407.555023
39.640 408.725372
39.645 414.13382
39.650 427.684845
39.655 441.283142
39.660 451.081543
39.665 452.058777
39.670 450.035065
39.675 438.913025
39.680 430.408478
39.685 426.641602
39.690 416.473083
39.695 420.188965
39.700 413.85437
39.705 424.743286
39.710 422.710815
39.715 418.61972
39.720 411.017975
39.725 399.628845
39.730 405.363251
39.735 408.521637
39.740 416.81897
39.745 417.921936
39.750 419.059357
39.755 413.329865
39.760 414.089935
39.765 412.070984
39.770 418.739899
39.775 421.44986
39.780 420.97226
39.785 414.429688
39.790 417.043671
39.795 418.29425
39.800 419.099426
39.805 418.25174
39.810 413.504089
39.815 424.615753
39.820 429.063202
39.825 437.153015
39.830 425.237274
39.835 410.220856
39.840 407.992828
39.845 420.896484
39.850 435.921722
39.855 440.61853
39.860 439.020599
39.865 424.75473
39.870 421.700836
39.875 407.942932
39.880 406.143585
39.885 403.65509
39.890 422.293793
39.895 427.432678
39.900 423.687927
39.905 414.558167
39.910 406.564575
39.915 405.312347
39.920 397.867798
39.925 405.26767
39.930 415.755371
39.935 432.738464
39.940 439.657043
39.945 438.386047
39.950 423.807159
39.955 415.403961
39.960 418.867889
39.965 415.866913
39.970 407.312714
39.975 394.715393
39.980 391.26767
39.985 402.564209
39.990 410.369812
39.995 416.266968
40.000 419.514587
40.005 415.877441
40.010 419.716705
40.015 415.313782
40.020 411.295624
40.025 411.022217
40.030 406.53949
40.035 408.125671
40.040 402.938507
40.045 412.404541
40.050 414.162201
40.055 420.782166
40.060 424.713562
40.065 420.84137
40.070 423.813934
40.075 423.361328
40.080 425.547699
40.085 419.602875
40.090 417.092316
40.095 413.298584
40.100 410.681366
40.105 413.338959
40.110 410.2229
40.115 411.297424
40.120 414.98468
40.125 426.056244
40.130 430.261902
40.135 429.356079
40.140 434.952332
40.145 433.353851
40.150 434.330505
40.155 427.196747
40.160 417.878143
40.165 418.979614
40.170 428.655151
40.175 430.704254
40.180 441.692139
40.185 433.219147
40.190 429.526764
40.195 424.530365
40.200 418.198944
40.205 420.567139
40.210 415.003265
40.215 406.931946
40.220 414.616394
40.225 418.798401
40.230 426.071625
40.235 426.364563
40.240 428.022034
40.245 425.148132
40.250 426.1875
40.255 428.756195
40.260 422.738861
40.265 429.019226
40.270 428.745758
40.275 426.600067
40.280 420.784119
40.285 417.025543
40.290 415.915527
40.295 420.959717
40.300 417.224213
40.305 416.041473
40.310 412.89859
40.315 418.165039
40.320 417.469757
40.325 415.19339
40.330 414.697388
40.335 409.777679
40.340 418.201813
40.345 403.537048
40.350 394.11853
40.355 391.18634
40.360 385.274902
40.365 405.669159
40.370 419.269714
40.375 430.717651
40.380 437.868042
40.385 432.007507
40.390 421.156891
40.395 401.836029
40.400 391.43042
40.405 396.155457
40.410 409.433868
40.415 415.092804
40.420 417.719543
40.425 410.773712
40.430 402.623138
40.435 394.189789
40.440 391.836731
40.445 405.702576
40.450 412.232941
40.455 417.198486
40.460 409.294128
40.465 405.102936
40.470 417.589203
40.475 433.420502
40.480 432.325073
40.485 424.232483
40.490 410.557098
40.495 412.460022
40.500 414.389435
40.505 415.696838
40.510 429.339478
40.515 425.117615
40.520 429.276917
40.525 422.672943
40.530 409.761902
40.535 414.801544
40.540 417.665405
40.545 423.858826
40.550 428.477112
40.555 430.907837
40.560 432.105255
40.565 426.059937
40.570 425.025635
40.575 424.105408
40.580 428.890625
40.585 428.841553
40.590 429.077301
40.595 418.474091
40.600 418.704315
40.605 416.611755
40.610 424.580231
40.615 419.677216
40.620 415.600403
40.625 408.288818
40.630 416.900146
40.635 440.519531
40.640 442.489594
40.645 430.208588
40.650 413.269348
40.655 410.736053
40.660 416.348389
40.665 413.359192
40.670 409.174835
40.675 398.501648
40.680 410.79248
40.685 418.481506
40.690 428.083099
40.695 431.818695
40.700 433.689056
40.705 429.451569
40.710 420.190125
40.715 414.004608
40.720 410.071777
40.725 422.054474
40.730 425.401215
40.735 422.331116
40.740 421.478455
40.745 419.436035
40.750 417.005493
40.755 418.127655
40.760 408.767395
40.765 406.321655
40.770 400.75354
40.775 407.612732
40.780 412.977783
40.785 420.220245
40.790 417.365997
40.795 412.493835
40.800 411.030365
40.805 413.917419
40.810 421.432831
40.815 413.61795
40.820 402.728668
40.825 402.336517
40.830 405.64566
40.835 415.2099
40.840 413.171753
40.845 421.011261
40.850 421.32959
40.855 422.247925
40.860 435.479004
40.865 438.08667
40.870 441.984131
40.875 434.319824
40.880 435.599731
40.885 432.894348
40.890 435.556824
40.895 419.344635
40.900 410.028046
40.905 410.340454
40.910 417.448547
40.915 420.955658
40.920 418.608704
40.925 413.426544
40.930 418.932953
40.935 420.089905
40.940 415.304962
40.945 411.443481
40.950 409.9953
40.955 409.778503
40.960 409.179291
40.965 405.196686
40.970 402.520386
40.975 406.850983
40.980 405.162872
40.985 404.016754
40.990 399.621094
40.995 388.918762
41.000 402.622437
41.005 407.803314
41.010 413.494965
41.015 415.056366
41.020 411.034668
41.025 412.5961
41.030 407.085388
41.035 402.688538
41.040 403.778046
41.045 416.505829
41.050 423.410278
41.055 436.388733
41.060 431.72229
41.065 432.440033
41.070 426.561951
41.075 426.353973
41.080 422.859314
41.085 421.149445
41.090 416.039886
41.095 411.034363
41.100 401.804993
41.105 394.469452
41.110 392.596161
41.115 411.915558
41.120 430.809753
41.125 437.032166
41.130 442.49765
41.135 436.113068
41.140 441.163483
41.145 439.821991
41.150 431.265961
41.155 429.181671
41.160 420.14743
41.165 426.470642
41.170 428.503082
41.175 426.19812
41.180 420.635803
41.185 408.06839
41.190 415.788788
41.195 418.439697
41.200 424.241669
41.205 423.251801
41.210 425.471313
41.215 428.430908
41.220 429.828979
41.225 429.828827
41.230 418.584595
41.235 416.856079
41.240 417.893768
41.245 416.479675
41.250 421.921936
41.255 415.864868
41.260 420.244171
41.265 426.834045
41.270 430.382202
41.275 436.329803
41.280 427.542297
41.285 420.2005
41.290 410.591858
41.295 407.025024
41.300 408.937317
41.305 422.279236
41.310 438.124329
41.315 434.581329
41.320 442.201324
41.325 430.123535
41.330 422.250793
41.335 420.450592
41.340 421.300873
41.345 431.538696
41.350 436.091309
41.355 430.506592
41.360 418.755829
41.365 407.869812
41.370 401.420685
41.375 407.33252
41.380 418.280609
41.385 420.725189
41.390 426.790314
41.395 428.706696
41.400 432.659973
41.405 433.5495
41.410 440.2323
41.415 430.24234
41.420 429.860046
41.425 428.83786
41.430 422.702789
41.435 429.222961
41.440 433.067688
41.445 441.411896
41.450 443.512878
41.455 444.015228
41.460 452.613953
41.465 450.338165
41.470 451.866516
41.475 435.64975
41.480 429.068115
41.485 422.006073
41.490 421.542542
41.495 416.07785
41.500 420.452911
41.505 411.600616
41.510 415.868622
41.515 425.202393
41.520 433.393799
41.525 433.940552
41.530 443.053131
41.535 429.864044
41.540 423.714478
41.545 414.239899
41.550 413.748047
41.555 421.242432
41.560 432.25769
41.565 420.465881
41.570 416.212769
41.575 414.672729
41.580 419.638672
41.585 431.421509
41.590 434.546112
41.595 421.830627
41.600 427.357544
41.605 422.916016
41.610 432.162781
41.615 441.378052
41.620 438.999512
41.625 438.200623
41.630 439.848083
41.635 439.801819
41.640 431.939545
41.645 434.044769
41.650 427.471069
41.655 434.886993
41.660 434.986511
41.665 432.913086
41.670 433.405151
41.675 434.768494
41.680 431.999817
41.685 429.9216
41.690 430.828613
41.695 433.459473
41.700 441.024536
41.705 430.92215
41.710 436.447083
41.715 430.438232
41.720 429.818359
41.725 419.281921
41.730 418.22348
41.735 417.320862
41.740 423.671936
41.745 435.725861
41.750 432.931
41.755 433.345398
41.760 424.450745
41.765 424.645477
41.770 424.957397
41.775 429.953217
41.780 435.680267
41.785 437.241882
41.790 442.839111
41.795 444.213165
41.800 448.176147
41.805 449.036377
41.810 457.145081
41.815 453.977081
41.820 453.378937
41.825 446.888458
41.830 440.780396
41.835 437.394684
41.840 438.844208
41.845 437.282349
41.850 441.53595
41.855 439.32135
41.860 436.080505
41.865 432.242523
41.870 431.867126
41.875 435.773773
41.880 438.460114
41.885 446.22049
41.890 441.339233
41.895 439.75769
41.900 431.55304
41.905 432.965851
41.910 426.686859
41.915 427.017212
41.920 423.144226
41.925 422.853607
41.930 431.788727
41.935 440.693451
41.940 442.272247
41.945 445.537598
41.950 443.649536
41.955 438.98288
41.960 434.255798
41.965 425.963379
41.970 428.266479
41.975 437.573425
41.980 441.636444
41.985 435.904541
41.990 434.724152
41.995 436.628723
42.000 449.684692
42.005 443.136475
42.010 429.505463
42.015 425.790802
42.020 434.500641
42.025 445.275757
42.030 449.611298
42.035 437.575775
42.040 438.783264
42.045 428.925995
42.050 421.383759
42.055 420.359497
42.060 421.548248
42.065 435.508331
42.070 434.879974
42.075 429.431793
42.080 417.498016
42.085 428.987976
42.090 434.683289
42.095 457.373596
42.100 453.31955
42.105 450.177917
42.110 452.056335
42.115 441.60025
42.120 455.795715
42.125 443.699738
42.130 439.447632
42.135 448.095886
42.140 451.104309
42.145 462.301636
42.150 454.675079
42.155 448.091644
42.160 449.265137
42.165 448.835266
42.170 453.793457
42.175 447.870697
42.180 453.916504
42.185 454.317413
42.190 434.047943
42.195 425.943359
42.200 434.555054
42.205 450.542877
42.210 466.698822
42.215 453.588257
42.220 439.183105
42.225 429.271576
42.230 431.883545
42.235 447.657867
42.240 468.447815
42.245 472.879181
42.250 473.465668
42.255 462.975525
42.260 459.40683
42.265 452.492584
42.270 441.181091
42.275 434.737823
42.280 430.061829
42.285 438.980408
42.290 451.066254
42.295 457.390259
42.300 470.764862
42.305 465.059601
42.310 463.088135
42.315 460.851349
42.320 467.334015
42.325 468.138489
42.330 465.330688
42.335 454.915497
42.340 445.968109
42.345 432.382324
42.350 438.685516
42.355 443.608887
42.360 452.065735
42.365 461.606903
42.370 457.029083
42.375 458.546875
42.380 459.762085
42.385 460.342194
42.390 460.944397
42.395 463.530609
42.400 457.702271
42.405 454.893311
42.410 442.572021
42.415 440.611084
42.420 448.177704
42.425 458.483856
42.430 463.338074
42.435 458.323273
42.440 451.998138
42.445 442.276215
42.450 439.255798
42.455 442.68042
42.460 441.497467
42.465 447.04187
42.470 449.638184
42.475 445.90094
42.480 449.358368
42.485 456.297638
42.490 453.761475
42.495 451.791992
42.500 444.621399
42.505 446.441162
42.510 448.438568
42.515 451.760406
42.520 450.537262
42.525 451.03717
42.530 463.489532
42.535 459.733307
42.540 451.189697
42.545 440.328735
42.550 430.978821
42.555 446.419189
42.560 461.283417
42.565 457.780823
42.570 453.841949
42.575 440.91745
42.580 444.444702
42.585 459.054291
42.590 463.060059
42.595 459.832703
42.600 456.251648
42.605 456.922455
42.610 463.343964
42.615 464.973602
42.620 461.833649
42.625 465.906616
42.630 465.846008
42.635 460.539673
42.640 461.82312
42.645 458.231506
42.650 468.458466
42.655 463.396088
42.660 464.790131
42.665 462.232849
42.670 470.845428
42.675 474.568085
42.680 473.378998
42.685 457.104492
42.690 443.750763
42.695 439.906464
42.700 448.503448
42.705 454.858734
42.710 460.794312
42.715 464.071228
42.720 465.993164
42.725 477.53183
42.730 477.475647
42.735 471.258453
42.740 472.239288
42.745 457.099854
42.750 469.012939
42.755 477.470215
42.760 481.194702
42.765 481.45459
42.770 482.459167
42.775 484.890106
42.780 480.13089
42.785 471.94696
42.790 457.833984
42.795 455.053436
42.800 457.577118
42.805 468.088013
42.810 476.666687
42.815 485.6586
42.820 490.124969
42.825 486.047729
42.830 487.472748
42.835 472.003082
42.840 462.528961
42.845 460.903656
42.850 463.275787
42.855 461.973053
42.860 456.924408
42.865 443.795471
42.870 440.591187
42.875 459.183716
42.880 462.663361
42.885 459.633026
42.890 447.932861
42.895 436.580536
42.900 438.900024
42.905 438.634583
42.910 442.174255
42.915 455.295105
42.920 460.480743
42.925 470.253632
42.930 463.245911
42.935 468.071747
42.940 481.442627
42.945 478.410492
42.950 474.774292
42.955 462.245422
42.960 463.7854
42.965 471.958954
42.970 484.65451
42.975 479.087952
42.980 485.396332
42.985 492.612762
42.990 495.937866
42.995 492.735413
43.000 483.979156
43.005 476.567047
43.010 478.647552
43.015 482.614807
43.020 481.752197
43.025 488.648407
43.030 489.961823
43.035 485.863251
43.040 488.369781
43.045 487.555878
43.050 487.023499
43.055 487.905304
43.060 477.499023
43.065 489.062775
43.070 488.591431
43.075 494.968658
43.080 485.025818
43.085 476.242584
43.090 469.259674
43.095 463.796783
43.100 466.98584
43.105 474.643494
43.110 487.660004
43.115 489.005524
43.120 492.482666
43.125 502.803986
43.130 503.418518
43.135 496.044403
43.140 480.039398
43.145 473.633698
43.150 485.526642
43.155 492.312103
43.160 481.109619
43.165 462.917572
43.170 455.645355
43.175 453.867676
43.180 456.626831
43.185 463.942078
43.190 473.660217
43.195 485.964966
43.200 488.137634
43.205 478.526611
43.210 474.182617
43.215 476.369751
43.220 481.612244
43.225 478.749268
43.230 474.537079
43.235 464.921387
43.240 461.537292
43.245 473.715149
43.250 491.891632
43.255 502.200836
43.260 507.788208
43.265 499.406738
43.270 495.163208
43.275 481.284393
43.280 485.732849
43.285 484.365601
43.290 486.986877
43.295 489.692688
43.300 470.313751
43.305 469.415833
43.310 473.473114
43.315 474.631439
43.320 481.547791
43.325 474.349457
43.330 475.261292
43.335 481.730469
43.340 481.249878
43.345 485.536285
43.350 495.205872
43.355 497.874756
43.360 501.68335
43.365 493.801483
43.370 486.683228
43.375 484.160492
43.380 484.614441
43.385 489.173737
43.390 487.231964
43.395 487.374969
43.400 493.056519
43.405 496.640533
43.410 506.68573
43.415 501.763245
43.420 486.175812
43.425 485.273376
43.430 485.944275
43.435 496.397522
43.440 501.096252
43.445 497.131714
43.450 488.761566
43.455 481.328674
43.460 488.892883
43.465 484.208466
43.470 488.909027
43.475 481.255981
43.480 479.807312
43.485 483.261902
43.490 493.557159
43.495 484.589264
43.500 488.10199
43.505 486.485931
43.510 488.021912
43.515 510.79245
43.520 503.419922
43.525 502.544312
43.530 487.314117
43.535 476.197845
43.540 491.394806
43.545 500.114075
43.550 507.272095
43.555 512.063477
43.560 497.358215
43.565 497.843567
43.570 489.632538
43.575 484.63446
43.580 481.637604
43.585 490.656311
43.590 497.862549
43.595 505.095276
43.600 501.137482
43.605 497.314575
43.610 499.850922
43.615 494.772552
43.620 489.35675
43.625 483.716248
43.630 479.650269
43.635 476.415222
43.640 480.237061
43.645 483.416077
43.650 491.237091
43.655 495.694397
43.660 500.682648
43.665 504.573334
43.670 511.461578
43.675 515.534302
43.680 507.360504
43.685 514.467712
43.690 517.299622
43.695 516.775513
43.700 517.284424
43.705 503.553802
43.710 496.393738
43.715 485.246826
43.720 482.821991
43.725 485.015533
43.730 495.41687
43.735 505.827118
43.740 511.213806
43.745 516.51825
43.750 508.177948
43.755 497.197388
43.760 483.136688
43.765 482.823822
43.770 485.749298
43.775 502.384918
43.780 507.775177
43.785 499.601318
43.790 493.580017
43.795 486.283966
43.800 478.421204
43.805 481.640961
43.810 489.589233
43.815 491.429047
43.820 502.949463
43.825 495.873779
43.830 502.413055
43.835 507.472229
43.840 505.949738
43.845 504.978424
43.850 508.049622
43.855 515.742004
43.860 515.282043
43.865 505.248535
43.870 501.232941
43.875 503.074615
43.880 513.462708
43.885 519.625549
43.890 526.950745
43.895 530.030029
43.900 522.087219
43.905 512.102173
43.910 506.367828
43.915 510.664764
43.920 523.305054
43.925 516.965271
43.930 517.843201
43.935 517.814392
43.940 531.364441
43.945 541.086487
43.950 524.284729
43.955 516.660828
43.960 510.723602
43.965 520.068542
43.970 527.7995
43.975 528.262085
43.980 535.128174
43.985 533.148193
43.990 543.117737
43.995 543.385376
44.000 552.027527
44.005 555.74884
44.010 555.912598
44.015 556.504089
44.020 563.130188
44.025 568.524902
44.030 563.835327
44.035 570.094238
44.040 569.237122
44.045 578.429199
44.050 590.986938
44.055 599.58252
44.060 611.427002
44.065 610.029541
44.070 616.965759
44.075 628.340759
44.080 626.069397
44.085 638.0448
44.090 652.337097
44.095 656.271545
44.100 670.44165
44.105 692.36792
44.110 700.888489
44.115 707.861572
44.120 708.207336
44.125 731.808044
44.130 746.546143
44.135 746.06781
44.140 753.975586
44.145 773.941101
44.150 774.103882
44.155 785.146484
44.160 796.758118
44.165 797.39209
44.170 797.601257
44.175 793.894836
44.180 799.090637
44.185 811.321716
44.190 800.455139
44.195 790.757324
44.200 779.071777
44.205 769.20166
44.210 763.675598
44.215 753.927673
44.220 756.832214
44.225 754.560852
44.230 740.062622
44.235 750.638184
44.240 744.140137
44.245 734.332092
44.250 732.88855
44.255 726.500122
44.260 721.157837
44.265 712.782776
44.270 707.192749
44.275 713.412903
44.280 706.262329
44.285 693.302979
44.290 682.181763
44.295 670.549072
44.300 665.421387
44.305 675.183411
44.310 669.338501
44.315 659.660889
44.320 652.626709
44.325 646.133423
44.330 649.141602
44.335 647.038147
44.340 654.711792
44.345 649.460754
44.350 635.604309
44.355 624.388489
44.360 616.953491
44.365 616.235229
44.370 616.756958
44.375 612.317017
44.380 614.48407
44.385 619.327759
44.390 605.828735
44.395 608.284912
44.400 605.686096
44.405 607.506897
44.410 597.673157
44.415 583.821594
44.420 574.439819
44.425 570.089294
44.430 564.005127
44.435 560.679016
44.440 557.880249
44.445 549.097473
44.450 562.825989
44.455 567.761353
44.460 575.060486
44.465 568.410706
44.470 555.94342
44.475 554.998596
44.480 551.302917
44.485 557.453857
44.490 562.741943
44.495 569.266479
44.500 566.870789
44.505 566.983643
44.510 569.318054
44.515 565.472107
44.520 563.625183
44.525 555.895203
44.530 552.140137
44.535 561.202209
44.540 557.761658
44.545 546.101318
44.550 538.577576
44.555 540.431396
44.560 553.57959
44.565 561.178711
44.570 566.278076
44.575 560.743896
44.580 554.647766
44.585 556.436462
44.590 561.990051
44.595 564.038879
44.600 569.972046
44.605 571.492371
44.610 572.648438
44.615 572.877686
44.620 573.447083
44.625 569.914429
44.630 572.042542
44.635 585.121765
44.640 590.130188
44.645 605.034668
44.650 606.224976
44.655 617.09021
44.660 621.628723
44.665 621.289734
44.670 612.926758
44.675 608.960693
44.680 617.757385
44.685 638.457947
44.690 656.849121
44.695 675.634888
44.700 682.359131
44.705 678.805542
44.710 680.039001
44.715 687.122742
44.720 685.473816
44.725 685.856018
44.730 682.583191
44.735 703.618469
44.740 723.095764
44.745 734.177429
44.750 736.259399
44.755 744.085266
44.760 756.11676
44.765 759.430725
44.770 760.998718
44.775 754.953247
44.780 761.113525
44.785 753.586914
44.790 754.548035
44.795 739.959412
44.800 732.62677
44.805 747.150574
44.810 757.861877
44.815 770.310974
44.820 770.01825
44.825 750.4151
44.830 744.588623
44.835 750.595154
44.840 767.623901
44.845 768.743958
44.850 752.153198
44.855 737.770264
44.860 738.81543
44.865 748.671997
44.870 743.718445
44.875 743.05603
44.880 729.342468
44.885 739.579468
44.890 734.221741
44.895 725.223694
44.900 709.699951
44.905 700.154846
44.910 709.137756
44.915 701.125061
44.920 690.186279
44.925 678.478699
44.930 674.970581
44.935 673.155396
44.940 661.145264
44.945 640.811218
44.950 641.920715
44.955 640.58197
44.960 643.937927
44.965 648.769165
44.970 647.465942
44.975 631.319275
44.980 627.479065
44.985 610.544189
44.990 604.887634
44.995 600.565002
45.000 599.314331
45.005 605.385986
45.010 606.406799
45.015 592.723389
45.020 581.803284
45.025 574.083069
45.030 564.131226
45.035 566.804443
45.040 570.78241
45.045 570.766785
45.050 564.322754
45.055 557.357727
45.060 554.871033
45.065 554.539368
45.070 548.776367
45.075 541.225159
45.080 543.800232
45.085 545.960693
45.090 543.499207
45.095 541.072021
45.100 530.432068
45.105 529.690979
45.110 524.890015
45.115 529.019836
45.120 526.380005
45.125 527.838928
45.130 541.434326
45.135 541.725159
45.140 531.660095
45.145 528.360962
45.150 524.216919
45.155 525.081482
45.160 531.205627
45.165 526.213379
45.170 520.416565
45.175 522.733887
45.180 511.417542
45.185 506.220032
45.190 502.817017
45.195 507.208282
45.200 516.214233
45.205 529.025574
45.210 524.650513
45.215 521.67218
45.220 512.53772
45.225 517.809326
45.230 529.15625
45.235 524.354858
45.240 530.523438
45.245 516.194763
45.250 506.395508
45.255 515.032349
45.260 520.014526
45.265 525.158325
45.270 528.78894
45.275 526.73761
45.280 522.842773
45.285 514.543823
45.290 499.82132
45.295 498.389771
45.300 501.749878
45.305 502.02359
45.310 512.954407
45.315 508.910522
45.320 508.234344
45.325 504.514374
45.330 511.963074
45.335 523.305298
45.340 526.094666
45.345 520.749695
45.350 516.152954
45.355 517.239075
45.360 522.295349
45.365 518.70575
45.370 519.099243
45.375 503.342285
45.380 502.878235
45.385 500.204987
45.390 508.57077
45.395 514.425171
45.400 508.504913
45.405 494.259155
45.410 486.887939
45.415 490.56308
45.420 490.354767
45.425 509.172516
45.430 523.073242
45.435 530.026306
45.440 530.739746
45.445 514.676697
45.450 509.524017
45.455 521.403564
45.460 528.171082
45.465 528.900574
45.470 516.503235
45.475 500.94873
45.480 503.778229
45.485 513.49353
45.490 523.871216
45.495 527.602173
45.500 537.021729
45.505 539.585754
45.510 540.682129
45.515 545.397217
45.520 529.147522
45.525 527.620178
45.530 521.829956
45.535 516.844971
45.540 511.497437
45.545 515.403809
45.550 524.154846
45.555 528.139893
45.560 519.137146
45.565 508.842499
45.570 507.721466
45.575 523.211853
45.580 535.345947
45.585 531.703247
45.590 524.076904
45.595 518.625916
45.600 521.960571
45.605 529.939392
45.610 533.20697
45.615 527.72937
45.620 520.246826
45.625 515.897461
45.630 516.239685
45.635 518.841187
45.640 529.047241
45.645 527.894531
45.650 527.64978
45.655 521.50293
45.660 512.743896
45.665 517.945557
45.670 513.024048
45.675 529.496948
45.680 519.60907
45.685 519.610291
45.690 513.895874
45.695 518.205078
45.700 524.553589
45.705 511.772247
45.710 506.758911
45.715 508.521362
45.720 518.29657
45.725 520.462097
45.730 519.651489
45.735 507.293549
45.740 506.100708
45.745 514.836792
45.750 521.759277
45.755 532.087402
45.760 536.096924
45.765 528.804932
45.770 524.034485
45.775 505.107758
45.780 507.309387
45.785 516.811646
45.790 518.035095
45.795 517.686707
45.800 508.400848
45.805 505.5047
45.810 499.442261
45.815 501.889679
45.820 498.160004
45.825 511.13739
45.830 513.091248
45.835 518.207764
45.840 516.266113
45.845 517.663513
45.850 517.22345
45.855 512.051941
45.860 500.969421
45.865 509.698914
45.870 524.172241
45.875 539.322571
45.880 549.820374
45.885 539.288208
45.890 528.58667
45.895 525.569702
45.900 524.216553
45.905 523.014099
45.910 522.494324
45.915 517.710999
45.920 512.337341
45.925 510.368347
45.930 508.534546
45.935 502.253174
45.940 517.12616
45.945 529.25116
45.950 533.420898
45.955 530.636292
45.960 515.006897
45.965 511.521484
45.970 510.982025
45.975 526.537537
45.980 527.254333
45.985 526.741821
45.990 519.597961
45.995 516.202332
46.000 513.324463
46.005 511.150635
46.010 508.172913
46.015 519.136108
46.020 530.587219
46.025 538.716736
46.030 533.634399
46.035 532.974365
46.040 532.791748
46.045 536.662476
46.050 526.137634
46.055 521.09198
46.060 515.732178
46.065 510.076294
46.070 505.5336
46.075 500.349762
46.080 518.873474
46.085 522.660095
46.090 532.047424
46.095 535.337585
46.100 529.365112
46.105 529.705994
46.110 522.646606
46.115 511.15451
46.120 509.181793
46.125 516.342346
46.130 508.03064
46.135 513.150452
46.140 502.18573
46.145 497.615417
46.150 510.273346
46.155 506.879822
46.160 515.537903
46.165 521.441406
46.170 508.063354
46.175 507.198486
46.180 507.897156
46.185 516.981445
46.190 525.041443
46.195 528.584595
46.200 538.416138
46.205 539.940186
46.210 538.116028
46.215 524.389038
46.220 514.910095
46.225 518.284973
46.230 513.943787
46.235 518.61499
46.240 519.440308
46.245 521.341309
46.250 514.988586
46.255 519.292725
46.260 531.191162
46.265 544.909851
46.270 541.019958
46.275 528.669617
46.280 519.837158
46.285 511.490234
46.290 527.15155
46.295 538.316589
46.300 534.778687
46.305 537.732727
46.310 518.519836
46.315 520.399414
46.320 519.621155
46.325 526.981628
46.330 533.652588
46.335 534.495605
46.340 523.844421
46.345 519.747864
46.350 516.558167
46.355 513.391174
46.360 522.833801
46.365 518.340942
46.370 520.180237
46.375 517.487793
46.380 527.58551
46.385 536.484009
46.390 553.082764
46.395 554.526428
46.400 541.932007
46.405 536.42511
46.410 522.817627
46.415 521.571228
46.420 518.544495
46.425 532.184814
46.430 536.609863
46.435 550.860962
46.440 543.902222
46.445 536.753052
46.450 530.728638
46.455 524.440796
46.460 526.640808
46.465 527.481628
46.470 526.842712
46.475 521.600708
46.480 515.185791
46.485 516.54071
46.490 513.179443
46.495 525.318787
46.500 528.47699
46.505 525.225525
46.510 520.645996
46.515 514.951965
46.520 513.942749
46.525 521.721619
46.530 526.762085
46.535 525.655884
46.540 527.228394
46.545 520.267517
46.550 517.639832
46.555 518.867798
46.560 524.881104
46.565 541.060242
46.570 535.811462
46.575 525.109619
46.580 518.873474
46.585 527.376648
46.590 537.235413
46.595 541.26416
46.600 532.237671
46.605 540.101807
46.610 538.824951
46.615 532.660339
46.620 527.494934
46.625 521.03186
46.630 526.816772
46.635 538.485718
46.640 535.660095
46.645 537.534424
46.650 524.156006
46.655 535.535583
46.660 546.181885
46.665 547.403748
46.670 547.273682
46.675 540.87439
46.680 538.12085
46.685 528.999084
46.690 529.294312
46.695 533.401123
46.700 549.221619
46.705 544.433838
46.710 525.73468
46.715 522.386475
46.720 522.607178
46.725 535.253967
46.730 540.552856
46.735 541.007996
46.740 544.433899
46.745 545.868896
46.750 537.435608
46.755 534.58551
46.760 530.463989
46.765 542.487671
46.770 555.29425
46.775 554.710999
46.780 548.787048
46.785 533.553284
46.790 536.34082
46.795 527.557678
46.800 526.694031
46.805 535.326782
46.810 537.969788
46.815 553.566528
46.820 537.584229
46.825 531.763245
46.830 525.220459
46.835 528.245483
46.840 542.184631
46.845 539.325134
46.850 531.267883
46.855 524.357483
46.860 523.220703
46.865 537.32959
46.870 540.237305
46.875 550.836609
46.880 555.787231
46.885 561.141724
46.890 551.647583
46.895 524.874146
46.900 514.098267
46.905 510.729187
46.910 523.260437
46.915 536.960205
46.920 533.215637
46.925 533.897339
46.930 531.71344
46.935 535.298218
46.940 536.220215
46.945 533.762146
46.950 531.464661
46.955 533.827393
46.960 535.344666
46.965 544.03949
46.970 543.448669
46.975 538.962708
46.980 538.0802
46.985 540.155151
46.990 544.650696
46.995 537.998413
47.000 525.384399
47.005 517.645203
47.010 527.6203
47.015 545.306274
47.020 554.492126
47.025 544.785645
47.030 531.682434
47.035 534.493347
47.040 526.334595
47.045 534.356812
47.050 529.191467
47.055 528.96637
47.060 533.414917
47.065 534.572815
47.070 535.057983
47.075 535.274963
47.080 541.886597
47.085 542.482361
47.090 536.272339
47.095 528.771851
47.100 531.460327
47.105 536.628357
47.110 540.668762
47.115 539.933655
47.120 535.591309
47.125 536.18988
47.130 538.153931
47.135 538.76178
47.140 541.686829
47.145 551.326904
47.150 552.193909
47.155 551.247375
47.160 544.208008
47.165 537.006836
47.170 536.131714
47.175 530.893677
47.180 529.754272
47.185 539.047241
47.190 546.9422
47.195 544.90387
47.200 539.752441
47.205 527.517456
47.210 532.11499
47.215 536.934631
47.220 534.506531
47.225 534.770203
47.230 532.777222
47.235 539.748047
47.240 546.764099
47.245 541.626099
47.250 534.3125
47.255 524.256042
47.260 525.840698
47.265 528.606689
47.270 536.091492
47.275 534.044312
47.280 531.848999
47.285 527.684021
47.290 530.697937
47.295 535.974609
47.300 538.049744
47.305 532.12207
47.310 523.777344
47.315 529.759155
47.320 539.046082
47.325 549.474121
47.330 552.360962
47.335 546.303833
47.340 548.298035
47.345 544.822021
47.350 546.34668
47.355 547.189087
47.360 544.693054
47.365 540.32843
47.370 539.932556
47.375 533.038452
47.380 532.165649
47.385 530.388
47.390 539.798218
47.395 540.003296
47.400 543.599854
47.405 541.22467
47.410 539.746399
47.415 536.438293
47.420 538.769592
47.425 534.781433
47.430 536.225891
47.435 533.723389
47.440 538.484314
47.445 546.27478
47.450 542.266235
47.455 537.622864
47.460 534.041626
47.465 536.012939
47.470 537.105164
47.475 534.545166
47.480 535.834595
47.485 543.701965
47.490 537.59259
47.495 539.516296
47.500 537.002747
47.505 531.554321
47.510 523.513184
47.515 529.892639
47.520 535.780762
47.525 546.678772
47.530 543.146301
47.535 533.601685
47.540 532.742554
47.545 532.987732
47.550 538.13623
47.555 540.262024
47.560 551.307739
47.565 554.501953
47.570 555.661804
47.575 539.390869
47.580 524.664429
47.585 512.695496
47.590 514.720642
47.595 523.974243
47.600 526.984924
47.605 525.424316
47.610 531.791504
47.615 532.437927
47.620 538.438843
47.625 538.521362
47.630 530.963379
47.635 538.57489
47.640 533.628479
47.645 529.510986
47.650 524.026367
47.655 517.54657
47.660 515.49707
47.665 524.666321
47.670 534.96283
47.675 539.55426
47.680 531.886597
47.685 520.423889
47.690 520.101563
47.695 535.740356
47.700 552.485229
47.705 564.591125
47.710 551.50885
47.715 539.615662
47.720 535.421326
47.725 541.52179
47.730 547.046448
47.735 556.474304
47.740 553.125916
47.745 552.668945
47.750 546.997131
47.755 536.506287
47.760 535.222778
47.765 533.713745
47.770 543.041992
47.775 553.041504
47.780 544.93866
47.785 540.315247
47.790 531.799316
47.795 535.593262
47.800 542.113831
47.805 539.114563
47.810 531.879639
47.815 520.483032
47.820 525.28656
47.825 533.61615
47.830 548.917175
47.835 550.411499
47.840 538.894226
47.845 536.194702
47.850 529.479675
47.855 536.116577
47.860 533.058655
47.865 532.167847
47.870 536.264038
47.875 528.311584
47.880 536.625854
47.885 537.491882
47.890 533.017883
47.895 529.501404
47.900 526.136475
47.905 530.239197
47.910 544.863953
47.915 542.760681
47.920 536.920044
47.925 531.374695
47.930 528.993408
47.935 532.030579
47.940 540.557922
47.945 549.016418
47.950 554.248535
47.955 550.281006
47.960 538.492493
47.965 534.660217
47.970 546.640381
47.975 544.408386
47.980 549.060547
47.985 537.454041
47.990 529.298584
47.995 536.86145
48.000 531.131897
48.005 534.659607
48.010 532.001465
48.015 533.044189
48.020 535.080994
48.025 543.522217
48.030 539.901367
48.035 545.942993
48.040 554.076294
48.045 564.412903
48.050 564.0979
48.055 542.945251
48.060 530.537476
48.065 528.180359
48.070 528.555786
48.075 525.706848
48.080 523.973877
48.085 530.535339
48.090 529.707275
48.095 530.910034
48.100 529.079102
48.105 536.358521
48.110 543.325623
48.115 543.85144
48.120 543.598083
48.125 540.203674
48.130 547.114136
48.135 545.981201
48.140 551.386902
48.145 546.447876
48.150 554.247559
48.155 545.520874
48.160 539.490845
48.165 538.542664
48.170 535.538574
48.175 535.384094
48.180 529.893738
48.185 528.320068
48.190 532.488586
48.195 531.037292
48.200 534.979187
48.205 530.365417
48.210 538.352234
48.215 547.036499
48.220 544.445313
48.225 550.362549
48.230 539.883728
48.235 526.848633
48.240 524.37915
48.245 515.957703
48.250 535.23053
48.255 545.434265
48.260 545.31311
48.265 535.74762
48.270 523.650391
48.275 528.886658
48.280 530.647827
48.285 531.241577
48.290 523.821289
48.295 535.549438
48.300 540.49884
48.305 549.247375
48.310 537.794434
48.315 542.145874
48.320 541.363831
48.325 551.840576
48.330 541.789917
48.335 533.402222
48.340 519.377014
48.345 520.518677
48.350 525.385132
48.355 527.297913
48.360 527.797974
48.365 527.763428
48.370 533.058838
48.375 532.36908
48.380 520.138062
48.385 520.412537
48.390 517.640076
48.395 529.671265
48.400 543.58136
48.405 553.257751
48.410 556.790527
48.415 548.286499
48.420 534.354919
48.425 528.467712
48.430 526.158569
48.435 528.624268
48.440 527.830017
48.445 532.496155
48.450 531.924072
48.455 543.902771
48.460 550.908081
48.465 539.553467
48.470 542.229248
48.475 538.739746
48.480 551.673523
48.485 555.951355
48.490 556.073181
48.495 558.265198
48.500 560.738037
48.505 571.249634
48.510 578.981018
48.515 577.54071
48.520 571.647461
48.525 554.526489
48.530 545.969116
48.535 542.335876
48.540 539.655518
48.545 544.989868
48.550 550.908081
48.555 559.694336
48.560 561.859131
48.565 561.158508
48.570 565.581238
48.575 569.733704
48.580 580.004395
48.585 579.132935
48.590 569.565002
48.595 560.943054
48.600 554.945129
48.605 557.215637
48.610 570.506165
48.615 570.352112
48.620 578.720215
48.625 563.422913
48.630 569.268311
48.635 564.891907
48.640 572.218323
48.645 578.920532
48.650 577.954102
48.655 568.825439
48.660 560.917908
48.665 556.803528
48.670 559.202942
48.675 559.887085
48.680 554.133179
48.685 561.991577
48.690 565.495789
48.695 571.30542
48.700 577.121643
48.705 575.861023
48.710 576.471252
48.715 575.277222
48.720 558.513977
48.725 545.547241
48.730 541.512695
48.735 550.217712
48.740 558.962036
48.745 553.399475
48.750 548.828491
48.755 550.853271
48.760 553.176941
48.765 568.02063
48.770 576.383057
48.775 580.192139
48.780 577.416504
48.785 563.660278
48.790 547.377258
48.795 545.654663
48.800 543.057678
48.805 550.38324
48.810 537.791199
48.815 535.140564
48.820 527.124817
48.825 542.618042
48.830 552.968201
48.835 556.751953
48.840 558.266968
48.845 539.839111
48.850 548.00177
48.855 550.967651
48.860 558.509827
48.865 551.774048
48.870 540.315308
48.875 519.290222
48.880 518.510193
48.885 531.097473
48.890 530.586426
48.895 538.402588
48.900 536.772034
48.905 543.466675
48.910 557.899414
48.915 551.57135
48.920 556.416748
48.925 553.859863
48.930 553.059509
48.935 548.843201
48.940 529.798279
48.945 527.548218
48.950 535.751892
48.955 530.666565
48.960 526.496521
48.965 523.555542
48.970 534.724854
48.975 546.348755
48.980 545.294495
48.985 537.496277
48.990 536.138428
48.995 542.432373
49.000 548.072266
49.005 544.135681
49.010 532.875183
49.015 529.301086
49.020 529.582031
49.025 528.256714
49.030 531.228638
49.035 524.718201
49.040 530.569275
49.045 534.494141
49.050 540.119995
49.055 539.894775
49.060 535.29248
49.065 531.509277
49.070 534.518616
49.075 548.390137
49.080 542.106567
49.085 535.354004
49.090 525.749023
49.095 536.905823
49.100 542.95752
49.105 548.028076
49.110 542.433411
49.115 557.267029
49.120 574.846802
49.125 580.997314
49.130 575.860657
49.135 562.455566
49.140 558.417114
49.145 562.993347
49.150 574.52356
49.155 565.058472
49.160 562.756226
49.165 567.116638
49.170 565.845825
49.175 565.289185
49.180 565.438782
49.185 574.503357
49.190 579.893677
49.195 581.895691
49.200 575.755188
49.205 579.694214
49.210 587.273743
49.215 591.900391
49.220 582.130127
49.225 577.361755
49.230 578.089722
49.235 585.11676
49.240 581.543457
49.245 579.029297
49.250 571.002502
49.255 583.884644
49.260 589.500061
49.265 593.161621
49.270 583.273865
49.275 576.735535
49.280 588.449707
49.285 582.704285
49.290 582.062866
49.295 571.046753
49.300 583.730835
49.305 591.303833
49.310 594.362732
49.315 589.557312
49.320 582.684021
49.325 581.594116
49.330 576.566711
49.335 581.042175
49.340 581.638794
49.345 588.685303
49.350 584.020691
49.355 571.517578
49.360 561.055542
49.365 554.520264
49.370 561.074585
49.375 561.45636
49.380 555.756775
49.385 549.194824
49.390 556.464355
49.395 559.808777
49.400 559.286072
49.405 563.176636
49.410 563.29834
49.415 560.150879
49.420 561.296509
49.425 548.772705
49.430 543.202881
49.435 547.645264
49.440 546.353333
49.445 560.74231
49.450 563.257935
49.455 571.249512
49.460 553.842041
49.465 540.664856
49.470 529.596008
49.475 541.921387
49.480 562.791138
49.485 568.344299
49.490 567.980408
49.495 565.299377
49.500 563.208252
49.505 563.624146
49.510 556.032349
49.515 547.367432
49.520 533.818726
49.525 519.661926
49.530 519.54187
49.535 532.730896
49.540 546.798218
49.545 559.434021
49.550 558.23877
49.555 554.749084
49.560 560.366577
49.565 564.922241
49.570 568.880554
49.575 561.132629
49.580 556.272034
49.585 562.377747
49.590 567.36499
49.595 563.890991
49.600 550.044495
49.605 535.506653
49.610 535.302856
49.615 540.428284
49.620 544.580261
49.625 547.545532
49.630 546.940796
49.635 546.675659
49.640 539.77655
49.645 533.256104
49.650 544.011536
49.655 561.256592
49.660 575.329773
49.665 574.301086
49.670 560.870544
49.675 547.444641
49.680 543.902161
49.685 551.876404
49.690 549.669373
49.695 538.824402
49.700 530.377625
49.705 536.382568
49.710 550.904297
49.715 558.149536
49.720 550.61322
49.725 549.656616
49.730 550.825684
49.735 552.926697
49.740 545.604126
49.745 530.231628
49.750 528.542053
49.755 537.922302
49.760 551.991211
49.765 563.701477
49.770 558.220886
49.775 552.770142
49.780 552.054871
49.785 552.406982
49.790 556.466858
49.795 549.666077
49.800 556.932434
49.805 555.191772
49.810 556.451172
49.815 549.085876
49.820 549.334656
49.825 555.664307
49.830 549.384399
49.835 547.940857
49.840 544.266846
49.845 543.512085
49.850 547.411316
49.855 548.989197
49.860 549.923523
49.865 537.356506
49.870 530.997864
49.875 519.002991
49.880 520.793396
49.885 523.987488
49.890 536.411194
49.895 543.704895
49.900 551.816345
49.905 553.51947
49.910 561.350159
49.915 566.880127
49.920 566.908691
49.925 562.827332
49.930 555.560181
49.935 552.762573
49.940 549.13562
49.945 558.932495
49.950 569.184448
49.955 568.850159
49.960 557.442749
49.965 542.391602
49.970 541.524353
49.975 544.039307
49.980 544.102051
49.985 543.626343
49.990 537.549622
49.995 540.454712
50.000 549.836426
50.005 547.771729
50.010 554.732239
50.015 553.155212
50.020 556.088257
50.025 551.073425
50.030 547.661743
50.035 536.976746
50.040 541.667969
50.045 543.397461
50.050 553.911987
50.055 564.192688
50.060 565.605042
50.065 561.825989
50.070 557.237671
50.075 554.562561
50.080 562.38147
50.085 563.956238
50.090 557.656616
50.095 554.299194
50.100 549.907837
50.105 550.574219
50.110 541.345703
50.115 543.343872
50.120 540.198975
50.125 547.659851
50.130 549.778809
50.135 548.436951
50.140 554.439331
50.145 547.207764
50.150 540.033936
50.155 540.109192
50.160 550.518127
50.165 561.990417
50.170 564.308228
50.175 559.169983
50.180 549.670166
50.185 550.078979
50.190 550.335815
50.195 553.826477
50.200 562.420959
50.205 556.527832
50.210 553.581421
50.215 554.547485
50.220 546.243713
50.225 556.348083
50.230 556.464905
50.235 553.309204
50.240 544.512512
50.245 529.869385
50.250 530.25116
50.255 536.716675
50.260 548.97113
50.265 551.391724
50.270 554.816223
50.275 557.978088
50.280 553.226135
50.285 556.842468
50.290 561.633301
50.295 576.594788
50.300 585.62915
50.305 581.262634
50.310 558.220154
50.315 547.272705
50.320 539.848145
50.325 545.380005
50.330 544.98938
50.335 545.164856
50.340 546.074341
50.345 554.543945
50.350 557.176575
50.355 554.078918
50.360 552.676514
50.365 555.636719
50.370 564.476624
50.375 573.194275
50.380 571.587036
50.385 572.682068
50.390 562.108398
50.395 561.139709
50.400 558.845398
50.405 559.471985
50.410 571.45459
50.415 570.868835
50.420 574.798035
50.425 566.391479
50.430 559.407959
50.435 553.899475
50.440 554.413574
50.445 553.330811
50.450 561.44043
50.455 567.634644
50.460 576.338684
50.465 577.892029
50.470 565.779663
50.475 561.108704
50.480 560.512024
50.485 572.514099
50.490 588.022278
50.495 572.17627
50.500 562.036194
50.505 551.81366
50.510 560.90918
50.515 570.57074
50.520 570.257324
50.525 561.990784
50.530 551.609985
50.535 554.502319
50.540 558.204285
50.545 571.326721
50.550 574.715881
50.555 577.133911
50.560 565.493591
50.565 560.781128
50.570 560.712219
50.575 560.234009
50.580 558.234558
50.585 560.871765
50.590 566.683777
50.595 574.691406
50.600 571.551941
50.605 562.924866
50.610 569.348572
50.615 572.039307
50.620 575.473083
50.625 568.075134
50.630 568.746704
50.635 568.908691
50.640 565.718018
50.645 560.750732
50.650 563.162964
50.655 565.851807
50.660 560.127563
50.665 558.878296
50.670 552.263611
50.675 553.027405
50.680 561.352661
50.685 555.330261
50.690 565.927917
50.695 560.957336
50.700 560.057556
50.705 561.414307
50.710 555.913269
50.715 562.880676
50.720 563.488403
50.725 570.936096
50.730 571.167053
50.735 574.484375
50.740 575.783447
50.745 574.61145
50.750 566.32428
50.755 570.675537
50.760 583.455444
50.765 583.077576
50.770 581.06134
50.775 561.66156
50.780 561.296753
50.785 563.285156
50.790 565.371277
50.795 579.280701
50.800 572.81781
50.805 568.675476
50.810 562.217896
50.815 572.920532
50.820 578.013123
50.825 571.750122
50.830 560.8974
50.835 551.242554
50.840 558.733154
50.845 557.352051
50.850 573.578003
50.855 573.332214
50.860 580.785217
50.865 573.823975
50.870 579.771484
50.875 585.275818
50.880 590.313232
50.885 586.391418
50.890 591.267517
50.895 581.218628
50.900 577.764648
50.905 569.004028
50.910 564.020691
50.915 563.063599
50.920 566.005066
50.925 559.113342
50.930 551.570496
50.935 548.901855
50.940 546.914551
50.945 556.854126
50.950 567.484192
50.955 568.215271
50.960 566.554199
50.965 556.462097
50.970 552.3797
50.975 563.85614
50.980 583.926636
50.985 594.753052
50.990 583.848267
50.995 572.553101
51.000 561.615967
51.005 570.913574
51.010 571.701843
51.015 568.611389
51.020 566.650696
51.025 568.812073
51.030 569.878052
51.035 569.248413
51.040 566.979675
51.045 563.737244
51.050 564.17804
51.055 558.819519
51.060 562.953003
51.065 561.203796
51.070 569.897827
51.075 563.888916
51.080 567.533875
51.085 577.217346
51.090 580.095154
51.095 584.192566
51.100 583.993103
51.105 579.203186
51.110 574.300598
51.115 567.668152
51.120 571.855225
51.125 563.508911
51.130 566.285034
51.135 566.37793
51.140 575.41803
51.145 588.312195
51.150 584.962158
51.155 579.479126
51.160 566.416504
51.165 562.421448
51.170 561.837708
51.175 555.441711
51.180 548.058228
51.185 544.990295
51.190 555.89447
51.195 566.041016
51.200 570.869019
51.205 576.011536
51.210 570.897949
51.215 566.362915
51.220 561.34906
51.225 566.120605
51.230 580.128601
51.235 578.090515
51.240 574.562012
51.245 560.962524
51.250 549.385254
51.255 551.803894
51.260 553.046326
51.265 565.726013
51.270 562.19397
51.275 564.989807
51.280 577.787048
51.285 587.691406
51.290 591.688416
51.295 586.328552
51.300 576.29657
51.305 580.012451
51.310 576.527588
51.315 562.890625
51.320 551.24884
51.325 546.56665
51.330 545.358765
51.335 557.744751
51.340 558.637085
51.345 567.528503
51.350 571.519287
51.355 576.122437
51.360 570.328125
51.365 573.428833
51.370 574.114136
51.375 583.84906
51.380 577.181702
51.385 573.303772
51.390 565.236328
51.395 564.688538
51.400 575.683777
51.405 569.424744
51.410 572.952698
51.415 562.090759
51.420 553.451111
51.425 555.178833
51.430 557.68689
51.435 563.6026
51.440 576.599243
51.445 574.299927
51.450 571.88269
51.455 566.530579
51.460 568.579224
51.465 570.283264
51.470 569.937683
51.475 562.561951
51.480 561.071533
51.485 570.526123
51.490 580.303772
51.495 577.494812
51.500 576.064087
51.505 573.598206
51.510 575.295105
51.515 566.590515
51.520 560.104004
51.525 557.539673
51.530 555.624695
51.535 572.335571
51.540 578.006226
51.545 578.072144
51.550 577.291565
51.555 563.982117
51.560 567.752197
51.565 564.281677
51.570 569.540405
51.575 562.940918
51.580 552.034973
51.585 539.092407
51.590 546.867615
51.595 557.447021
51.600 581.247864
51.605 576.14917
51.610 573.84314
51.615 571.648743
51.620 569.190002
51.625 566.672241
51.630 561.364624
51.635 563.538147
51.640 572.08783
51.645 574.348267
51.650 567.252136
51.655 559.908203
51.660 558.558594
51.665 563.324646
51.670 568.40271
51.675 572.995972
51.680 579.728027
51.685 583.688843
51.690 573.948547
51.695 562.268555
51.700 555.086853
51.705 559.829346
51.710 569.125061
51.715 574.554626
51.720 569.725403
51.725 563.992676
51.730 564.444336
51.735 575.161926
51.740 573.855164
51.745 563.474915
51.750 545.161194
51.755 552.524963
51.760 563.333557
51.765 581.51886
51.770 583.482666
51.775 572.845398
51.780 560.400574
51.785 546.539978
51.790 546.755066
51.795 551.313538
51.800 557.218506
51.805 557.632141
51.810 562.790955
51.815 568.343506
51.820 569.193848
51.825 572.137207
51.830 559.236816
51.835 568.694702
51.840 568.287781
51.845 571.54425
51.850 573.263733
51.855 572.488831
51.860 568.62085
51.865 570.522644
51.870 570.713074
51.875 575.753906
51.880 576.031067
51.885 566.847473
51.890 560.586731
51.895 562.033936
51.900 577.592651
51.905 588.324036
51.910 581.777527
51.915 569.368896
51.920 559.783936
51.925 562.145752
51.930 569.731812
51.935 585.674072
51.940 582.229553
51.945 574.214783
51.950 565.597168
51.955 566.28064
51.960 572.132507
51.965 569.994446
51.970 564.564758
51.975 561.917969
51.980 556.913513
51.985 554.76825
51.990 549.379578
51.995 562.32019
52.000 565.68988
52.005 578.715393
52.010 578.939697
52.015 584.268066
52.020 589.500916
52.025 595.065247
52.030 595.335815
52.035 590.343323
52.040 576.77832
52.045 571.953186
52.050 567.547852
52.055 566.09314
52.060 570.279236
52.065 561.503662
52.070 568.292786
52.075 567.88147
52.080 573.855774
52.085 575.29071
52.090 567.542297
52.095 569.104553
52.100 577.817139
52.105 579.99292
52.110 580.693481
52.115 569.846069
52.120 562.528076
52.125 561.944702
52.130 562.280518
52.135 572.53717
52.140 568.710938
52.145 571.18689
52.150 576.415588
52.155 584.287964
52.160 590.761047
52.165 585.014771
52.170 565.56958
52.175 547.004517
52.180 537.623779
52.185 543.834473
52.190 565.202087
52.195 573.268311
52.200 576.697021
52.205 565.74646
52.210 560.833191
52.215 568.282166
52.220 581.110535
52.225 581.61731
52.230 581.228821
52.235 577.312134
52.240 578.13501
52.245 573.581909
52.250 570.584778
52.255 570.105652
52.260 579.735596
52.265 580.767212
52.270 579.462219
52.275 566.92511
52.280 558.467468
52.285 560.039185
52.290 567.168152
52.295 573.639343
52.300 571.280518
52.305 574.132507
52.310 575.367859
52.315 581.900513
52.320 582.132446
52.325 575.746399
52.330 579.285828
52.335 573.516846
52.340 566.523743
52.345 564.023621
52.350 562.153809
52.355 573.37262
52.360 574.671692
52.365 570.568848
52.370 566.889465
52.375 568.17572
52.380 573.149292
52.385 571.906189
52.390 569.000671
52.395 569.364441
52.400 569.336609
52.405 574.06897
52.410 574.241028
52.415 575.197998
52.420 569.34906
52.425 570.406921
52.430 567.438416
52.435 572.297607
52.440 573.261597
52.445 576.518799
52.450 586.940674
52.455 576.321594
52.460 565.143921
52.465 551.611572
52.470 540.038391
52.475 555.273132
52.480 552.739624
52.485 562.582397
52.490 571.332703
52.495 576.533569
52.500 584.124329
